seconds_elapsed,z,y,x
0.143439697,-2.846007824,-0.581976891,-0.46824646
0.159217041,-2.65146637,-0.560432315,-0.418556929
0.175116699,-2.132023811,-0.366185665,-0.535990119
0.190986084,-1.023349762,-0.04103899,-0.522485018
0.206763428,-0.449766159,0.229015112,-0.356920421
0.222663086,-0.719320297,0.269587278,-0.15787816
0.238471436,-0.810947418,0.145296574,-0.244672239
0.254371094,0.340596199,0.149150133,-0.077587843
0.270270752,1.572147369,0.250597477,0.288907766
0.286078613,2.378911972,0.19626236,0.649343729
0.301978271,2.862319946,0.203771114,0.36478436
0.317908691,2.700389862,0.147111893,-0.003412008
0.333777588,2.164018631,-0.057687163,-0.409338117
0.349616455,2.073991776,0.145131707,-0.673207581
0.365485596,2.344587326,0.255768895,-0.729026496
0.381568359,2.417898178,0.201357484,0.025755763
0.397345703,2.28207016,-0.122758389,0.331700802
0.413154053,2.794582367,-0.566465557,-0.031676352
0.428992432,3.740675926,-0.980634391,-0.319312692
0.444800781,5.018012047,-1.098864675,0.191145897
0.460669922,5.592435837,-1.40125227,0.796599686
0.476508301,4.933927536,-1.172561646,1.00216186
0.492347168,3.017739296,-1.029299259,0.657648146
0.508124756,1.391163826,-0.858512282,0.058589995
0.5239021,0.44636631,-0.654143631,-0.049235523
0.539740967,-0.004172325,-0.590934575,0.102635324
0.555548828,-0.338381767,-0.586635113,0.320380867
0.571387695,-0.974452019,-0.501717806,0.375370741
0.587195557,-1.347993851,-0.400191069,0.271649212
0.603003906,-1.939397812,-0.391282558,0.142062798
0.618934082,-2.773595333,-0.502795815,-0.126885012
0.634741943,-2.900094986,-0.54095161,-0.303897798
0.650611084,-2.399430752,-0.491657972,-0.092907213
0.666449951,-1.881776333,-0.537903428,0.463579893
0.682257813,-1.759528637,-0.499000669,0.741258204
0.698157471,-2.377007484,-0.392492414,0.237393692
0.71396582,-3.094855785,-0.031425595,-0.082133681
0.729804199,-3.678683758,0.179795742,-0.274211943
0.745643066,-3.87898159,0.2424016,-0.234604374
0.761481689,-3.156731129,0.244568825,-0.289697707
0.777411865,-1.741560936,0.14225769,-0.374059677
0.793250488,-0.301998138,0.098935843,-0.341155857
0.809180664,1.053594589,0.050168276,-0.393536329
0.825019043,1.599619865,-0.037647724,-0.310917854
0.840827393,1.241260529,-0.163565159,-0.184471056
0.856727051,1.053497314,-0.106122494,-0.452747852
0.872535156,0.972805977,-0.424127102,-1.008360744
0.888404297,1.40826416,-0.451901555,-0.923455954
0.904212158,1.921133041,-0.53486371,-1.183487177
0.91998999,2.461377144,-0.730426669,-1.775396109
0.935889648,2.388934135,-0.869455695,-2.052634478
0.951636719,1.866504669,-1.191437125,-1.622460485
0.967536377,1.368777275,-1.660028934,-1.354028463
0.983344482,1.420794487,-1.730351806,-1.472456813
0.999244141,1.536418915,-1.606606483,-1.856554508
1.015113281,1.892346382,-1.359781504,-2.145539284
1.030951904,1.584281921,-1.321430922,-2.342544079
1.046820801,1.268878937,-1.118527174,-2.422440529
1.062659668,1.019651413,-0.982948184,-2.343126059
1.078467773,0.402532578,-0.890715122,-2.22850132
1.094367432,-0.506069183,-0.819964647,-1.982892632
1.110175537,-1.595736504,-0.505800247,-1.803790092
1.126075195,-2.154532433,-0.331769407,-1.79568696
1.141913818,-2.283013821,-0.159397066,-1.574979186
1.157782715,-2.079379559,-0.016326904,-1.162612677
1.173651855,-2.148258209,0.106557727,-0.837670088
1.189490723,-2.167449474,0.155791402,-0.558764398
1.205481934,-1.851746082,0.248058558,-0.332333475
1.221290039,-2.127427578,0.419204056,-0.170171261
1.23715918,-2.764023304,0.682423532,-0.21576789
1.25302832,-3.726355553,0.962455451,-0.66065824
1.268836426,-3.805017471,1.220211267,-0.746095538
1.284766357,-3.006337643,1.247902513,-0.668910682
1.300605225,-1.615462303,1.144502401,-0.421607733
1.316474365,0.139183998,1.017978549,-0.353948683
1.332343506,1.485117912,0.869879246,-0.47580269
1.348121094,2.056716919,0.772650719,-0.605750442
1.363959473,2.163164139,0.525965691,-0.49564141
1.37979834,2.058024406,0.455908895,-0.685949564
1.395636963,1.834220886,0.25881815,-0.811847627
1.411505859,1.708417892,-0.067774057,-0.628426015
1.427344727,2.615478516,0.067501664,0.027970016
1.443213867,3.027029991,0.308967233,0.432580829
1.45905249,2.48230648,0.266914248,0.50965029
1.474830078,1.882683754,0.130032897,0.349004567
1.490699219,2.39125061,-0.230980277,0.347174525
1.506507324,3.183260918,-0.668754101,0.379848301
1.522406982,4.392009735,-0.652835429,0.446451008
1.538276123,4.439455032,-0.74754107,0.599910796
1.554114746,3.652797699,-0.930193007,0.710599184
1.570014404,2.490766525,-0.997567475,0.474187315
1.585791992,1.258284569,-1.036787987,0.367528558
1.601722168,-0.067116737,-1.037647605,0.128222108
1.617530029,-0.661336899,-1.101811171,-0.120240241
1.633338379,-0.621980667,-1.093113899,-0.04235512
1.649238037,-0.334259033,-1.162619591,0.205079943
1.665045898,0.03459549,-1.110896945,0.508727074
1.680915283,-0.159556389,-0.973602891,0.603072941
1.696723389,-1.058663368,-0.754673004,0.636606812
1.712531494,-2.283554077,-0.54130137,0.576542854
1.728400635,-3.265496254,-0.453662336,0.457004726
1.744178223,-3.636424065,-0.416197956,0.291701615
1.760047363,-3.259398937,-0.326519608,0.221281663
1.775855469,-2.853649139,-0.18886435,0.436906099
1.791663574,-2.768708706,0.123108745,0.852066755
1.807563232,-3.08450985,0.390209198,0.966790915
1.82334082,-3.38165617,0.568200827,0.693013728
1.839240479,-3.323185444,0.564220309,0.239792705
1.855079102,-2.511737347,0.540938497,0.149661303
1.870887207,-1.253124237,0.327632546,0.21318832
1.886756348,0.503871918,0.144497991,0.579153061
1.902564453,1.686182022,-0.040424347,0.847150564
1.918433594,1.838027954,-0.130963087,0.896303177
1.934241455,1.828663826,0.006604433,0.50009501
1.950049805,1.304028511,0.088393688,-0.528973818
1.965949463,0.934945107,-0.119431734,-1.404764771
1.981727051,1.542016983,-0.010080934,-1.013557434
1.997596191,2.152135849,-0.45813477,-0.638687134
2.013434814,2.50347805,-0.547752261,-0.764459968
2.02924292,2.054696083,-0.702222645,-1.363498092
2.045112061,1.88284874,-1.036555052,-2.054517031
2.060920166,1.997384071,-1.444748878,-2.736756325
2.076819824,2.580878258,-1.640190125,-2.691663265
2.092658447,2.789833069,-1.720196724,-2.356209517
2.108496826,2.805182457,-1.375690222,-1.909450412
2.124365967,1.996167183,-1.171179533,-2.046463966
2.140204834,0.731163025,-1.063152909,-2.068482876
2.156104492,-0.246863365,-0.936789036,-1.922868133
2.171943115,-1.236682892,-0.944915295,-1.781538963
2.187781738,-1.802064896,-0.946330309,-1.16140461
2.203650879,-1.841409683,-0.869343221,-0.758930683
2.21945874,-1.602407455,-0.652886152,-0.357765913
2.235327881,-1.722569466,-0.36918664,-0.182878241
2.251166748,-2.199853897,-0.143634915,-0.033567563
2.266974609,-2.815533161,0.096947789,-0.006784927
2.282843994,-3.223134041,0.370514572,-0.258867353
2.298591064,-3.389783859,0.563829243,-0.311969966
2.314490723,-3.478661537,0.644540071,-0.210886419
2.330298828,-3.307961464,0.803608537,-0.128073081
2.346106934,-2.463631153,0.978983402,0.068254828
2.361976074,-1.675656319,1.041795731,0.187304884
2.377753662,-1.553371429,1.075193048,0.168410093
2.39365332,-1.558968544,1.159074306,-0.155504376
2.409491943,-0.366205215,1.144315243,-0.364959419
2.425300049,0.943889618,1.12846148,-0.192841768
2.441169189,1.784304619,1.070459485,0.26550442
2.456977051,2.251680374,0.58478713,0.675544381
2.472876709,2.709287643,0.292173028,0.527380764
2.488746094,3.024932861,-0.045912027,0.097441614
2.504493164,3.314357758,-0.381471753,-0.05378592
2.520362305,3.189932823,-0.226558328,0.279563963
2.536170166,2.512721062,-0.165069222,0.774896443
2.552039307,2.295416832,-0.294980645,0.810432374
2.567847656,2.988290787,-0.745922267,0.571662009
2.583655762,4.327324867,-1.322089911,0.671543419
2.599433105,5.2739048,-1.440841913,0.852467775
2.615241455,4.813808441,-1.586641431,1.314068675
2.631141113,3.505791664,-1.58795321,1.420469403
2.646979492,1.88047123,-1.540379763,1.127801657
2.662818359,0.812023163,-1.466128111,0.736964583
2.678718018,0.184087753,-1.479181528,0.649949729
2.694495605,-0.031982422,-1.502480149,0.636136889
2.710334229,-0.60433197,-1.571480751,0.576586008
2.72614209,-1.028240204,-1.589303732,0.557286501
2.741980957,-1.263307571,-1.632218957,0.594317973
2.757850098,-1.40040493,-1.531454682,0.620117247
2.773658203,-1.711572647,-1.418959379,0.591037154
2.789496826,-2.47098732,-1.261810184,0.556590378
2.805365967,-2.966590405,-1.187567234,0.624704003
2.821174072,-3.178296089,-1.069269538,0.741960824
2.837043213,-3.349866867,-0.93559438,0.739493191
2.852851318,-3.581049442,-0.847841442,0.693733692
2.868659424,-3.548947334,-0.720073998,0.657627642
2.884497803,-3.161067963,-0.543708086,0.596145093
2.900306152,-2.983879566,-0.315928817,0.658767402
2.916175293,-3.126515865,-0.118196964,0.788124979
2.931983398,-3.205755234,0.130724669,0.748797417
2.947852539,-2.383393764,0.256619096,0.410372734
2.963752197,-1.328704834,0.246999264,0.35376057
2.979621338,0.080525398,0.236513376,0.616531432
2.995490234,1.43549633,0.050718427,0.627697647
3.011329102,2.295119286,0.011513829,0.350676358
3.027259033,2.435979843,0.010886431,0.223223299
3.043067383,2.087038994,-0.085821986,-0.001648664
3.058875488,2.063199043,-0.098222852,-0.507289469
3.074775146,2.745227814,0.207093835,-0.97601074
3.09061377,3.076627731,-0.078208089,-0.883348286
3.106391357,3.601985931,-0.320034385,-0.36195749
3.122199219,3.69973278,-0.920932055,-0.608912408
3.138007568,3.609129906,-1.515551805,-1.356422424
3.153876709,3.49407196,-1.65885663,-1.525186539
3.169684814,3.941037178,-1.967110634,-1.893405437
3.185584473,4.383210182,-1.679341793,-1.670382142
3.201392578,3.617228508,-1.502535105,-1.469445705
3.217200684,2.330006599,-1.280559421,-1.327087641
3.233069824,0.667164803,-0.981817722,-1.847530961
3.24887793,-0.805788994,-0.801936507,-1.900735974
3.264686035,-1.835813999,-0.834327459,-1.159957409
3.280494141,-2.524623394,-0.925954163,-0.446157396
3.296271729,-2.510071754,-0.782666504,-0.107462496
3.31220166,-2.429647446,-0.653092325,-0.074190795
3.328040527,-2.671610355,-0.514481604,0.096435919
3.343909668,-2.657922268,-0.327382982,0.318360239
3.359778809,-2.996197701,-0.155538559,0.272331685
3.375617188,-3.81755209,-0.039735436,0.1537714
3.391516846,-4.462231159,0.044983029,0.08606112
3.407294678,-4.143797874,0.17112422,-0.226574063
3.423133301,-3.22716856,0.186048985,-0.143461525
3.438971924,-2.44423151,0.285294056,0.278086603
3.454810303,-2.282895565,0.439378738,0.348581076
3.470710205,-2.336797714,0.576958418,0.013012767
3.486579102,-1.690169334,0.61937356,-0.292822003
3.50247876,-0.585625648,0.412011504,0.00148055
3.518287109,1.894850731,0.421164155,0.65224576
3.534095215,3.043121338,0.251080513,1.190561771
3.549964355,2.37084198,0.294581532,1.409931302
3.565802979,1.371460915,0.185595274,0.652552962
3.581702637,1.812174797,-0.068659067,-0.620987177
3.597480225,3.31229496,-0.009057999,-0.801404119
3.613257813,4.75800705,0.196262479,0.091186345
3.629126953,5.494581223,0.341752887,1.192209244
3.644934814,5.55119133,0.319578052,1.006188393
3.660834473,5.228134155,-0.032233238,0.206470311
3.67667334,4.786756516,-0.410754681,-0.464757293
3.692481201,4.494217873,-0.717119813,-0.349957228
3.708380859,3.620839119,-1.211193323,0.268223226
3.724189209,2.447449684,-1.573442698,0.808297753
3.740149658,1.358167648,-1.686944604,1.32194066
3.756080078,0.080690384,-1.633556843,1.494209051
3.771888184,-1.246072769,-1.462453842,1.274525046
3.787726807,-2.423294544,-1.366896391,0.819215715
3.803595703,-3.443059921,-1.44288373,0.356557101
3.819495361,-3.744643688,-1.484138131,0.172694862
3.835273193,-3.624597073,-1.512853146,0.723268986
3.851081299,-3.934205055,-1.612695575,1.045977354
3.866980957,-4.011280537,-1.592225075,1.057315111
3.882789063,-3.822604656,-1.478862047,0.758183539
3.89856665,-3.422760487,-1.207505822,0.132233053
3.914374756,-2.868167877,-1.092126846,-0.108802594
3.930213379,-2.425559998,-0.909119368,0.054521974
3.946113037,-1.973483562,-0.693935037,0.057350967
3.961921143,-1.666068554,-0.29900527,-0.298275501
3.977790283,-2.276524067,0.291428328,-0.797093451
3.993659424,-3.138286591,0.590387464,-0.530547738
4.009467285,-3.076750278,0.66192174,0.445910692
4.025397705,-1.472980499,0.448479414,1.108223319
4.041266602,1.57667923,0.391502619,1.38440156
4.05716626,3.367664337,0.57030654,1.334299922
4.072974609,3.492842674,0.484985113,1.34750247
4.088752197,3.71293354,0.550407648,1.053515196
4.104621338,3.745723724,0.388794899,0.84279269
4.120459961,3.51793766,0.002333403,0.226704359
4.136328857,3.565163612,-0.141537666,-0.060168549
4.152198242,3.465468407,-0.432496905,-0.072046086
4.168006348,2.647278786,-0.559703946,-0.119239867
4.183875244,2.044365883,-0.676716328,-0.477794826
4.199714111,2.003185272,-1.009570122,-1.258519769
4.215583252,2.780347824,-1.301526308,-2.037839413
4.231421631,3.681728363,-1.700986028,-2.191625118
4.247260498,4.446702003,-1.79423058,-1.950502515
4.263160156,4.418827057,-2.114378452,-2.002119541
4.278876709,3.119979858,-1.660828352,-1.804778695
4.294837158,0.384710312,-1.278957963,-2.958632231
4.310645508,-2.260408878,-0.967701435,-3.580644846
4.326483887,-3.446847439,-0.966346741,-2.903163671
4.342383545,-3.067418575,-1.115681887,-1.775960445
4.358191895,-2.049709797,-1.213142633,-0.453171313
4.374091553,-1.222766876,-1.175940871,0.53338176
4.389869141,-1.247993469,-0.953392506,0.778232992
4.405707764,-2.17686367,-0.680566192,0.493581414
4.421637939,-3.505068302,-0.452114463,0.090613902
4.437415527,-4.647112846,-0.253078699,0.245448053
4.453315186,-5.021545887,-0.141491413,0.193173707
4.469184326,-4.12771225,-0.14299202,0.185218453
4.485022949,-2.982762337,-0.167381644,0.280670643
4.500922607,-2.211967468,-0.122780919,0.362661898
4.516730713,-2.233268738,0.039216876,0.397001266
4.532630371,-2.2141819,0.362214565,0.037982464
4.548438477,-1.489711761,0.739194274,-0.429743171
4.564246582,-0.846582413,0.938752651,-0.43770045
4.580176758,1.080609322,0.781607032,0.477688611
4.595984863,2.668857574,0.590416193,1.538617492
4.61185376,3.007147789,0.574839592,1.428100109
4.627692627,2.803308487,0.552439809,0.014590859
4.643500732,2.998410225,0.312795997,-1.003579259
4.659369629,3.643754005,0.294621348,-0.530030668
4.675177979,4.148955345,0.505030632,0.115481853
4.691077637,2.330806732,0.807944894,1.103097916
4.706916016,2.043323517,0.253633261,1.095555782
4.722724365,5.877235413,-0.244406819,0.07464397
4.738624023,8.55556488,-0.62328285,-1.693793297
4.754401611,6.871357918,-0.784259737,-2.110332012
4.770209473,1.340988159,-1.106907368,-0.14607802
4.786078613,-3.016765594,-1.245801926,1.083817363
4.801886963,-3.057817459,-1.62868166,1.593996167
4.817756104,-0.735064507,-1.953891516,1.427116156
4.833533691,0.859916687,-2.021571875,0.803714275
4.849402832,0.689496994,-1.808093786,0.944151282
4.865271729,-0.002058983,-1.67250371,1.277919531
4.881080078,-0.242235184,-1.532634258,1.174164772
4.896918457,-0.509311676,-1.503744483,1.241983652
4.912757324,-1.505819321,-1.357305884,1.23577714
4.928595947,-2.689036369,-1.159289837,1.053045034
4.944434326,-3.742930412,-0.888268709,0.862798691
4.960242676,-4.307442188,-0.79940474,0.864697933
4.976111816,-4.340690136,-0.762572765,0.476383895
4.991919922,-4.089774609,-0.382679999,0.156078279
5.007789063,-3.412140369,-0.209991455,0.122895777
5.023627441,-2.510276318,-0.016692638,0.392484546
5.039435791,-2.298979282,0.136287093,0.600266814
5.055335449,-3.021653175,0.440188169,0.361959279
5.071143311,-3.139575005,0.807827234,-0.260584414
5.087012695,-0.702810287,0.871391892,-0.545524716
5.102881836,2.423172951,0.484118462,0.107165426
5.118689697,4.568610191,0.223926187,0.91850996
5.134559082,4.412477493,0.078579903,1.157746315
5.150367188,2.789624214,0.223525524,0.781353056
5.166236084,1.33285141,0.294719934,-0.161736965
5.182074951,1.643587112,0.329349518,-1.762705564
5.197882813,3.182497025,0.58350718,-1.872101545
5.213782715,3.89918232,0.567746043,-1.296902776
5.22959082,3.182573318,0.641955853,-1.478949547
5.245490479,2.010787964,0.271722913,-1.871588945
5.261268066,1.342704773,-0.662834048,-2.195653915
5.277076172,1.895460129,-1.633788586,-2.569101095
5.292945068,3.419207573,-2.377895355,-2.609120607
5.308753418,4.177652359,-2.846438408,-1.262725234
5.324622559,3.954966545,-2.663392544,0.091084599
5.340491455,2.368478775,-2.286299706,0.073351845
5.356269287,-0.048434258,-1.90800035,-1.059736609
5.372139404,-2.290629387,-1.469446898,-2.410079002
5.388100098,-2.990506172,-1.284989953,-2.252418041
5.403999756,-2.943045139,-1.285626292,-1.204123497
5.419838379,-2.617361546,-1.307584286,-0.528901815
5.435677246,-2.314455509,-1.219111323,0.005805209
5.451546143,-2.429427624,-1.018524051,0.298170567
5.467354248,-2.814273834,-0.701892793,0.017559916
5.483253906,-3.306388378,-0.365447998,-0.24852103
5.499092773,-4.114928246,-0.187995017,-0.336635798
5.514931152,-5.01849556,0.014560461,-0.297521055
5.530800293,-5.003138065,-0.010355949,-0.243135005
5.546608398,-3.932828426,-0.037143469,0.293784499
5.562569336,-2.574137688,0.129669905,0.623895526
5.578407715,-1.992706776,0.358140469,0.359366119
5.594246338,-2.112295151,0.690799952,0.160939932
5.610145996,-1.809081078,0.990493298,0.016041994
5.625923584,-1.009634018,1.082810879,0.361618161
5.641823242,1.377388,0.99626565,1.244115114
5.657631592,3.684591293,0.87534678,2.142578125
5.673469971,4.383968353,0.673873186,1.827619433
5.689369629,3.941354752,0.530499339,0.226971388
5.705208252,3.570344925,0.295251131,-1.454948187
5.72110791,3.49501133,0.346917272,-1.373928189
5.736885498,3.30551815,0.390399694,-0.434849143
5.75266333,4.300148964,0.605942726,0.356928825
5.768562988,5.316220284,0.386809826,0.104326367
5.78437085,5.81579113,-0.139419496,-0.239850879
5.800392822,5.834854126,-0.701008081,-0.71259594
5.816231201,4.967952728,-1.160007715,-0.924396873
5.832039307,3.172280312,-1.445354462,-0.343767107
5.848,0.918624878,-1.600168705,0.22377789
5.863777832,-0.246991158,-1.694898844,0.241581202
5.879585693,-0.650698662,-1.983328581,0.367946029
5.895393799,-0.575077057,-2.037018776,0.573765159
5.911171631,-0.531255722,-2.064262152,0.635254383
5.92701001,-0.87071228,-1.908815861,0.459877133
5.942818359,-1.635050774,-1.755744338,0.480438352
5.958687256,-1.877484798,-1.444216967,0.82807833
5.974525879,-2.526619911,-1.129071474,0.64171356
5.990333984,-3.400434971,-0.981981993,0.271249175
6.006233887,-4.124526024,-0.887159288,-0.027232468
6.022041748,-4.361713886,-0.736159325,-0.182464778
6.037849854,-3.98793602,-0.695814848,-0.234861493
6.053688477,-3.338829517,-0.628181636,-0.242468834
6.069527344,-3.526816368,-0.350665748,-0.108046889
6.08545752,-4.391052723,0.091235042,-0.217070907
6.101295898,-4.986938,0.545658231,-0.547787607
6.117195801,-3.669448376,0.7329427,-0.064433217
6.132973389,-1.813194752,0.835073233,0.671126008
6.14878125,0.350703239,0.888975143,1.137831092
6.164650391,1.884716988,0.909813285,1.479868054
6.180367188,2.946642876,0.99415946,1.426683545
6.196297119,2.899429321,1.094011307,0.855904937
6.212105225,2.708730698,1.156119585,0.287659377
6.227974365,2.918745041,1.000110626,-0.301468849
6.243874023,3.511784554,0.842370749,-0.467416227
6.259651611,4.048961639,0.81075716,-0.539442301
6.275459961,4.270446777,0.649917006,-0.587704957
6.291298584,3.631028175,0.427848577,-1.041676044
6.307106445,2.431671143,-0.320329607,-1.79199636
6.323006104,3.037688255,-1.626203775,-1.524792194
6.338814209,4.439118385,-2.56296587,-0.608928442
6.354652832,4.880892754,-3.177930355,0.068959355
6.370491699,3.662666321,-3.040292263,-0.169802964
6.386299561,2.525832176,-2.707244873,-2.125927448
6.402229736,1.230664253,-2.025829554,-3.762522221
6.417976807,-0.143180847,-1.425807238,-2.987288952
6.433876465,-1.694694996,-1.250271678,-1.436580658
6.449715088,-2.43189621,-1.24366951,-0.598093569
6.465523193,-2.22827673,-1.127993822,-0.145429552
6.481422852,-1.960864067,-0.788208246,0.074208617
6.497231201,-2.368953705,-0.431683183,0.014531016
6.513100342,-3.096124172,-0.034825921,-0.644609749
6.528938721,-4.121918678,0.285483837,-1.092899084
6.544777588,-5.293653488,0.315553784,-0.9840554
6.560677002,-5.860794067,0.110346794,-1.226413608
6.576424072,-5.290052414,-0.005806923,-0.738904595
6.592262939,-4.961796761,-0.136315465,-0.435602307
6.608101318,-4.588648796,0.071115971,0.035888433
6.623940186,-4.144334793,0.290901542,0.574857235
6.639809326,-3.249167442,0.627399564,1.039138913
6.655617188,-2.604478359,0.872999907,0.87904048
6.671516846,-1.766661644,1.19297111,-0.032979369
6.687324951,0.962967873,0.995533347,-0.768250346
6.703133301,4.561761856,0.661133051,-0.220634222
6.719063232,5.921131134,0.41007638,0.872645199
6.73484082,4.62710762,0.558586001,0.859491885
6.750709961,3.753984451,0.75526762,-0.248084724
6.766548828,3.696660995,0.780039191,-1.159009814
6.782356689,4.081661224,0.875552297,-0.747118592
6.798256348,4.160650253,0.710024834,0.060576558
6.814095215,3.331323624,0.484747648,1.268596649
6.829964355,3.350304604,-0.096903086,1.373243332
6.845802734,4.718306541,-0.977802157,0.635825694
6.861611084,6.254369736,-1.655988455,0.574568391
6.877480225,6.065991402,-2.185751915,1.10607183
6.893318604,4.431463242,-2.168933153,1.45562768
6.909187744,1.741844177,-1.847399235,1.090927124
6.92499585,-0.667906761,-1.382460237,0.678426087
6.940773682,-2.676634312,-0.936577559,0.256287694
6.956703857,-3.581057549,-0.805566609,0.217615545
6.97242041,-3.278177261,-0.893812299,0.038408995
6.988289307,-2.092887878,-1.089193463,0.100163519
7.00412793,-1.034255028,-1.136021376,0.231860042
7.01999707,-1.080043793,-1.076208591,0.789477587
7.035927246,-1.680312157,-0.855146527,0.838914812
7.051704834,-2.506658554,-0.596829176,0.641884208
7.067604492,-3.600953102,-0.379811138,0.389078856
7.083473633,-4.602041245,-0.277567744,0.140964866
7.099281982,-4.747001648,-0.093470335,0.29152596
7.115120361,-4.749184608,0.134492397,0.343674511
7.130958984,-4.771044254,0.479453921,0.196312696
7.146828369,-4.67544508,0.714319706,-0.181880385
7.162666748,-3.55676651,0.990842938,-0.391715586
7.178475098,-2.265081882,1.026788473,-0.497687161
7.194344238,0.639351845,1.070754886,-0.379091024
7.2101521,2.625911713,0.970607758,0.112716228
7.226051758,3.037951469,0.427655339,0.963506818
7.241859863,3.05813694,0.567487121,1.11199975
7.257698486,3.056150436,0.656119108,0.221246481
7.273567627,3.012830734,0.501777053,-0.688676298
7.289406494,4.149626732,0.193024993,-1.166117072
7.305275391,5.233111382,0.033539295,-0.849452257
7.321114014,5.238990784,-0.780144691,-0.794505477
7.336952881,4.399487495,-0.753102243,0.003955424
7.352821777,3.180017471,-1.074760675,-0.115380526
7.368630127,2.470111847,-1.572197914,-0.686349213
7.384499268,2.403634071,-2.055023432,-1.018365145
7.400429199,2.962670326,-2.532913208,-1.094487667
7.416237305,3.398003578,-2.618243933,-1.124981642
7.432106445,2.419207573,-2.572928905,-1.183431864
7.447914795,0.344017029,-1.999044657,-0.788534224
7.463814453,-1.968812466,-1.581635237,-0.678186953
7.479592041,-3.643250465,-1.39311564,-0.815203547
7.495399902,-3.794606686,-1.415904522,-1.224339604
7.511299561,-3.364735126,-1.325989962,-1.32800734
7.527077148,-2.503611565,-1.051786661,-1.377703547
7.542946289,-2.168726444,-0.67820847,-0.705182791
7.55881543,-2.169670105,-0.287116766,0.098431438
7.574593018,-2.443163395,0.164407432,0.610655427
7.590462158,-2.924913406,0.470051527,0.661470473
7.606270508,-3.385766983,0.639141619,0.604466796
7.622170166,-4.039753914,0.599163711,0.325847656
7.637978027,-4.366071701,0.531009316,0.218232125
7.653755615,-3.96016407,0.642130554,-0.131673306
7.669594482,-2.299323559,0.783263028,-0.257692277
7.685432861,-0.156656265,0.53973794,-0.316303104
7.701302002,0.620082855,0.652242243,-0.006704628
7.717110352,0.927264214,0.663961053,0.461727142
7.732887695,0.629086494,0.93339932,0.417094946
7.74875708,0.422782898,1.087647796,-0.128389224
7.764564941,0.774992943,1.101567268,-0.781532526
7.780434082,2.017398834,0.623676658,-0.729943156
7.796242188,3.355556488,0.421700835,-0.217449024
7.81202002,3.652709007,0.295806646,-0.365051776
7.827919678,3.929745674,0.765045762,0.158391997
7.843758057,4.058952332,0.695107102,0.472141445
7.85959668,3.970083237,0.678034425,0.172496915
7.875374268,4.222381592,0.156342387,-0.902923822
7.891182617,4.461512566,-0.2969926,-1.054504514
7.907082275,4.961325645,-1.272019863,-1.066665173
7.922859863,5.393111229,-1.552678585,0.088412583
7.938667725,4.511029243,-1.565506101,0.885008335
7.954506592,2.112473488,-1.427564502,1.209321141
7.970344971,-0.062498093,-1.302315593,0.917155385
7.986214111,-1.435475349,-1.213505387,0.470330447
8.002022461,-2.224842072,-1.147663355,0.148968935
8.017922119,-2.608650684,-1.180648446,-0.043089829
8.03372998,-2.431580544,-1.185397506,0.077940032
8.04953833,-2.215705872,-1.307549715,0.31560573
8.065437988,-2.263804436,-1.164370418,1.02666688
8.08124585,-2.595044613,-1.039715409,1.40570128
8.097115234,-3.504588604,-0.869620025,0.945792913
8.112953613,-4.063658237,-0.671247423,0.514307201
8.128731445,-4.159622192,-0.532655597,0.279235601
8.144631104,-3.774144173,-0.368069589,0.403994501
8.160438965,-3.442475796,-0.355360627,0.75863421
8.176338623,-3.589179516,-0.162735343,0.854837596
8.192146973,-3.173582554,-0.026547074,0.608755171
8.207954834,-2.067229271,0.226476789,0.168108523
8.223762939,-0.078644753,0.368873477,0.189732671
8.239479492,0.980930328,0.4483248,0.946046293
8.25537915,1.411429405,0.473742247,1.449034095
8.271218018,1.970569611,0.52576673,1.369878411
8.287087158,2.127915382,0.645534992,0.867554903
8.302986816,1.983119011,0.656980038,0.138419464
8.318825195,2.139306068,0.399238467,-0.607417583
8.334694336,2.890274048,0.136070371,-1.416624308
8.350533203,3.46350193,-0.064728618,-1.452018976
8.366341064,3.232310295,-0.508084297,-1.052182674
8.382210205,2.965788841,-0.504449487,-0.499200344
8.398018311,2.937767029,-0.841808736,-0.691114843
8.413917969,3.11137104,-1.414113879,-1.029824972
8.429787109,3.36484623,-1.694897532,-1.089939237
8.445564697,3.066363335,-1.893433571,-1.220842361
8.461433838,2.389025688,-1.863279223,-1.342798233
8.477150391,1.474693298,-1.704169154,-1.324313283
8.493080566,0.224250793,-1.342685342,-1.351608515
8.508919189,-0.907813072,-1.032337666,-1.473610759
8.524758057,-1.470945358,-0.766707838,-1.702655911
8.540596436,-1.73866415,-0.766346097,-1.83435905
8.556404785,-1.596747398,-0.784986019,-1.804137826
8.572273682,-1.441069603,-0.909560323,-1.311635971
8.588051514,-1.71163559,-0.940401316,-0.592486024
8.603829102,-2.028473854,-0.904769182,0.047602415
8.61972876,-2.331055164,-0.728408098,0.426919997
8.635506104,-2.635685921,-0.402311146,0.052294254
8.651283691,-3.220113277,-0.102001607,-0.460562021
8.667092041,-3.954107285,0.154234171,-0.857170343
8.68293042,-4.599542618,0.380587459,-0.729446054
8.698799561,-4.734819889,0.553214073,-0.474094659
8.71460791,-3.789951324,0.735756755,-0.217362344
8.730446289,-1.807512283,0.845056772,-0.077949822
8.74631543,-0.09036541,0.87713623,0.021257877
8.762123535,0.978201866,0.862126827,-0.180317461
8.777962158,2.082725525,0.900816679,-0.307621002
8.793739746,2.674290657,0.779760242,0.050289392
8.809669922,2.573694229,0.728943825,0.847747087
8.825508545,1.525435448,0.680298805,0.509783745
8.841347412,1.568887711,0.31867373,-0.613322377
8.857185791,3.491168976,0.245720029,-0.634391427
8.872994141,5.57343483,0.69454813,-0.029314101
8.888893799,6.388101578,1.025113106,-0.261192977
8.90470166,5.24067688,1.400785804,-1.025155425
8.92051001,2.976373672,1.099857688,-1.61540401
8.936409668,2.016572952,0.425721765,-1.806270719
8.952217529,2.604857445,-0.44493866,-1.088033319
8.968056396,2.724553108,-1.217855453,0.209952235
8.983925537,1.72040844,-1.643156528,1.204071999
8.999733398,0.551844597,-1.816103935,1.675779819
9.015602783,-0.39983654,-1.78373313,1.646071553
9.031441162,-0.914532661,-1.87925446,1.465476274
9.04734082,-0.956869125,-1.791574478,0.888559639
9.06314917,-0.943021774,-1.675995111,0.191969514
9.078957031,-1.326242447,-1.563662291,-0.224317431
9.094795654,-1.821596622,-1.365993142,-0.301386952
9.11060376,-2.434938908,-1.147642255,-0.307863533
9.126503418,-2.925549984,-0.911700249,-0.474438608
9.142311768,-3.426026344,-0.777751863,-0.78063637
9.158089111,-3.647445202,-0.528253019,-0.877002001
9.173958496,-3.858540058,-0.453516722,-0.903955638
9.189796875,-4.003070831,-0.261111617,-0.521161854
9.205574707,-4.246334076,-0.129375339,-0.427191496
9.221382568,-4.085925579,0.313386559,-0.740708172
9.237160156,-3.668169022,0.731477261,-0.930360794
9.253029297,-2.780020237,1.046236515,-0.859560251
9.268806885,-1.902167797,1.242558956,-0.326110989
9.284645752,-0.721482277,1.295919418,0.112249613
9.300545166,0.940326691,1.270890236,0.325136602
9.316384033,2.34335804,1.122562408,0.694158435
9.332222412,3.131012917,0.991951227,1.555023193
9.348030762,3.448599815,0.724081516,1.583452463
9.363869141,3.580199242,0.476273656,0.8737818
9.379708008,3.577598572,0.082462668,0.059661925
9.395485352,3.748182297,0.128787279,-0.499694169
9.41138501,3.752676964,-0.092814088,0.025298476
9.427223877,3.622821808,-0.287750483,0.619539618
9.443093018,3.623435974,-0.779804349,0.044514239
9.458900879,4.818265915,-1.20351398,-1.179052114
9.474708984,5.849485397,-1.903020501,-2.198513746
9.490639404,5.995545387,-2.372918129,-2.335170507
9.506416992,4.440952301,-2.158799648,-1.368340969
9.522286133,1.61164093,-1.899416804,-0.479115784
9.538124512,-1.357510567,-1.755555153,-0.039640039
9.553932861,-3.393054485,-1.436900139,-0.668919206
9.569801758,-3.800632954,-1.222174168,-1.687880516
9.585640381,-3.385814667,-1.132034063,-2.026325464
9.601540039,-3.079768181,-1.109155416,-1.709097147
9.617348389,-2.303039074,-0.99261111,-0.58669591
9.633125977,-1.583521843,-0.659088135,0.626222908
9.648933838,-1.38758564,-0.329459518,1.037184
9.664772705,-2.242997169,-0.001508057,0.532747746
9.680641846,-2.964254856,0.238939285,-0.041867316
9.696480225,-3.955566406,0.286512434,-0.388644814
9.712319092,-4.594991684,0.374324441,-0.350389004
9.728157471,-5.004718781,0.615092635,-0.12384671
9.743965576,-4.831539631,0.512910545,0.122462094
9.759804443,-3.63173151,0.472619534,0.140389323
9.775612305,-1.551918983,0.584508717,0.028901577
9.79142041,-0.041500092,0.66703254,0.308798075
9.807320068,0.83963871,0.810908914,0.184685707
9.823067139,0.965515137,1.157969236,-0.081717014
9.838936279,1.787680626,1.094953299,0.111208439
9.854775146,2.940587997,0.68564558,0.263370633
9.870644287,3.790916443,0.287101746,0.066610098
9.886482666,4.092562675,-0.376543164,-0.124728084
9.902321289,4.61258316,-0.668423891,0.221788764
9.918190674,5.664423943,-0.405311108,0.388988018
9.934059814,6.237564087,-0.030909419,0.627009749
9.949837402,5.138259888,0.016978264,0.159994006
9.965706543,3.58131218,-0.421334982,0.042767286
9.981514404,2.911036491,-0.989097118,0.341249704
9.997383789,2.822585106,-1.395113111,0.508030772
10.01319165,1.852908134,-1.828812718,1.187034369
10.02896924,0.42223835,-2.281465292,1.645959616
10.04480786,-0.51054287,-2.389971733,1.377337933
10.06064673,-0.977898598,-2.217036963,0.94724679
10.07642407,-1.588474751,-2.079038858,0.70488131
10.09223218,-1.8547225,-1.901897311,0.288898349
10.1080708,-1.778175831,-1.632121444,-0.288069546
10.12394019,-1.915766716,-1.35163784,-0.830192029
10.13974805,-1.635288239,-0.999077678,-1.311141849
10.15558691,-1.292847633,-0.779408336,-1.281964302
10.17139478,-1.476989746,-0.585162997,-1.299615622
10.18720313,-2.030256271,-0.397078037,-1.282763481
10.2030415,-3.165585041,-0.283344626,-1.192638755
10.21878857,-4.148851395,-0.336702466,-1.20178926
10.23468823,-4.395414829,-0.282035708,-1.181570411
10.25049658,-3.922142982,-0.332812309,-0.791603267
10.26633496,-4.092901707,-0.314539552,-0.484322608
10.2822041,-4.554668903,-0.22241652,-0.206200898
10.29804297,-4.541465282,-0.335377097,-0.465461999
10.31391211,-1.602241516,-0.20774436,-0.474523753
10.32978101,1.822219849,0.093597889,0.042904556
10.34558936,3.472865105,0.398828506,1.056673527
10.36151929,3.326235771,0.762985826,1.365625381
10.37736084,2.681840897,1.055327892,1.123718977
10.39319971,2.372981071,0.985123515,1.076451063
10.40903833,2.914512634,0.68809092,0.865353048
10.42487671,3.871546745,0.310814261,0.71606648
10.44077637,5.181064606,0.283517599,0.888511181
10.45658472,5.259498596,0.039559007,1.187440395
10.47251489,4.287110329,-0.307727456,0.732315779
10.48829224,2.550512314,-1.256802201,-0.894170165
10.50410034,2.272587776,-2.293763399,-2.280900955
10.52000024,3.494636536,-2.945087433,-1.799145937
10.53583862,4.68474865,-3.844464779,-1.114983797
10.55173828,4.42962265,-3.457750797,-0.05147469
10.56757715,1.9728508,-3.026300907,-0.028667808
10.58341553,-0.92700386,-2.542236328,-0.540123463
10.59925415,-3.361675739,-2.022801638,-1.371658444
10.61506226,-4.039840221,-1.661089897,-1.934933066
10.6309314,-3.719510078,-1.65111196,-1.889616966
10.64677026,-3.031475067,-1.666152954,-1.506712675
10.6626394,-2.024564743,-1.506269217,-0.898348868
10.67850854,-1.499594688,-1.094136357,-0.325198978
10.69431665,-1.627329826,-0.669674754,-0.555127501
10.71015527,-1.964447498,-0.25811398,-1.401339054
10.72590234,-2.297842979,0.058792889,-2.070040226
10.74174072,-2.674280643,0.042007565,-1.566873312
10.75748779,-3.391549587,-0.138504982,-0.972051263
10.77326538,-3.848017216,-0.211411119,-0.12817955
10.78916504,-3.814398766,-0.377222061,0.303926826
10.80497339,-2.68693161,-0.36205554,0.394057035
10.82078125,-1.339327812,-0.232516527,0.388643742
10.83662012,-0.96172905,0.107250988,0.39540863
10.85239746,-0.825048447,0.419232726,-0.027622461
10.86829712,-0.019591331,0.927245259,-0.742809296
10.8841665,0.575186729,1.274893403,-0.918557465
10.89994385,2.033838272,0.98850131,0.183439374
10.91578271,2.41943264,0.647072911,0.815832853
10.9315603,2.478939056,0.038268328,0.195424438
10.94745996,3.313545227,-0.544084728,-0.640071571
10.96329858,4.756222725,-0.565614104,-0.427119792
10.97913696,5.550726891,-0.235139549,0.404663682
10.9950061,4.592987061,0.25425142,0.857698441
11.01084497,3.432734489,0.276503623,-0.169755936
11.02674463,3.218121529,-0.144311011,-0.922409356
11.04255249,3.678571701,-0.96810019,-1.1236552
11.05839136,3.801192284,-1.919958591,-0.536391318
11.0742605,4.051476479,-2.740421295,0.514201522
11.09006836,3.60244751,-3.067315102,1.476175308
11.10596802,2.279200554,-3.157592773,1.463083386
11.12177637,1.016860962,-2.82912302,1.151832342
11.13755396,-0.133291245,-2.427644491,0.420627475
11.15345361,-1.665389061,-1.859469414,-0.408351779
11.1692312,-3.256245613,-1.583845139,-0.722372651
11.18506982,-3.855546474,-1.294840097,-0.645798028
11.20087793,-3.134548187,-1.050143719,-0.392497957
11.21668579,-2.219378471,-0.907966197,-0.331222177
11.23258545,-1.931792259,-0.598245025,-0.880697548
11.2483938,-2.629004478,-0.389406025,-1.277463198
11.26426294,-3.619571686,-0.309055805,-1.350006938
11.28010132,-4.249813557,-0.343355983,-0.920029521
11.29594019,-4.263648987,-0.389125347,-0.491803825
11.31183984,-4.603034973,-0.252678931,-0.363581598
11.32761719,-4.960670948,0.017383754,-0.153679788
11.34354736,-5.135659695,0.335274935,0.465160131
11.35947778,-5.005423069,0.298472166,0.446619034
11.37528564,-1.389072418,0.192589521,0.235293567
11.39115503,3.405290604,0.140789628,0.440052152
11.40693237,5.341727257,0.217617989,1.193932056
11.42280176,4.94162941,0.480745971,1.888516307
11.4386709,3.801617622,0.864307523,1.394946933
11.45450928,2.743794441,1.108770251,0.786164284
11.47037842,2.715343475,1.079417109,-0.689972639
11.48615601,3.489265442,0.763152719,-1.526094556
11.50199487,4.653121948,0.339478493,-0.820982218
11.51780273,5.281624794,0.103038311,-0.096218497
11.53358057,5.199093819,-0.078451633,-0.080630422
11.54948022,3.248230934,-0.481774688,-0.715010524
11.56528809,1.409258842,-1.172971487,-1.362554312
11.58109644,1.265116692,-1.759512424,-1.412055016
11.59693481,2.122519493,-2.503431082,-1.022215247
11.61277368,3.12452507,-3.109525681,-0.639062643
11.62864282,3.159252167,-3.213881969,-0.315207243
11.64445093,1.603755951,-2.897327423,-0.430312157
11.66032007,-1.153429985,-2.425681353,-0.983268917
11.67612793,-3.443640709,-1.895520568,-1.533099174
11.69193628,-4.555411339,-1.734897971,-2.064123392
11.70774414,-4.312560558,-1.568369746,-1.727502108
11.72352173,-2.814678669,-1.382751584,-1.134807348
11.7393606,-1.256299973,-1.206481457,-0.277998477
11.75522974,-0.107870102,-0.954647601,0.305889785
11.7710376,-1.244808197,-0.658229053,0.056703448
11.78696777,-2.992815971,-0.423805892,-0.830444098
11.80277612,-4.805269718,-0.326744318,-0.886531353
11.81867578,-5.658495426,-0.411067486,-0.419351965
11.83451416,-5.745927334,-0.313159585,0.213952422
11.85032251,-5.754594326,-0.250226021,0.793970525
11.86622217,-4.83472538,-0.023463011,0.963730395
11.88199951,-3.810533047,0.055586219,0.027191877
11.89789917,-0.634013176,0.054924011,-0.7660743
11.91370752,1.374569893,0.233583331,-0.694058001
11.92951563,1.468840599,0.297844648,0.014920831
11.94535425,0.312823296,0.55715394,0.597386241
11.96116235,0.42236042,0.727016449,0.504501402
11.97703149,2.258530617,0.428024411,0.018401623
11.99283936,3.953415871,-0.202415109,-0.607006133
12.00861694,5.492362976,-0.495196998,-1.38993001
12.02445557,6.765135765,-0.078248858,-1.396077275
12.04026367,6.386621475,0.894759893,-1.697383881
12.05610229,3.411995888,1.601260662,-2.366334677
12.07194116,1.085819244,1.347680211,-1.733203888
12.08774902,1.548555374,0.272268295,-1.151982784
12.10364868,4.07579422,-1.097592473,-0.916820049
12.11939575,6.133270264,-2.451286316,0.196691334
12.13526514,6.245321274,-3.275320053,2.471497774
12.15110376,4.755280495,-3.542836189,3.294239521
12.16691187,1.711767197,-3.379104853,2.982529163
12.18265894,-0.532061577,-2.990577698,2.004416466
12.19849756,-1.664833069,-2.584972382,1.248333097
12.21439722,-1.694058418,-2.206703901,0.634212077
12.23020508,-1.339085579,-2.012700796,0.406389117
12.24601343,-0.866444588,-1.758593559,0.370462239
12.26185181,-0.899775505,-1.307137132,-0.157091379
12.27766016,-1.633246422,-0.968275249,-0.448355973
12.29349854,-2.619364262,-0.532266378,-0.340213716
12.3093374,-4.088849545,-0.278456748,-0.106904984
12.32514526,-5.23667717,-0.180304348,-0.388800025
12.34095361,-5.868189812,-0.149505734,-1.054780602
12.35670068,-4.766757011,-0.385062516,-1.434523344
12.37266113,-2.649867058,-0.324082494,-1.053542137
12.38846924,-2.997874737,-0.326726377,-0.246286482
12.40430786,-4.29390192,-0.249974966,0.589711905
12.42020752,-5.271080971,-0.113125801,0.383457661
12.43604639,-3.863125324,0.375560045,0.101501048
12.45191553,-0.168346405,0.648833275,-0.009895444
12.46775391,1.878926277,0.778124332,0.361567676
12.48356226,2.960256577,0.939698339,1.244772673
12.49943115,3.819340706,1.092760682,1.662809968
12.5152395,3.996319771,1.303741097,1.4597013
12.53116943,3.593135834,1.344427943,0.670700192
12.54694702,3.395832062,1.392490268,-0.050094932
12.56278589,4.13867569,1.353184581,-0.697345257
12.57865503,4.744371414,1.378838658,-0.799813449
12.59443262,4.771945953,0.946020603,-1.156123877
12.61027124,4.635678291,-0.238987327,-2.618424416
12.62607935,4.815588951,-1.62434864,-2.79501915
12.64188721,5.387324333,-3.067043304,-1.031852841
12.65772583,5.665807724,-3.805575371,0.592834592
12.67353394,3.493765831,-3.826342106,0.797306657
12.68943359,0.773874283,-3.252933502,-0.291891873
12.70527222,-2.274636269,-2.5426476,-1.741111279
12.72108057,-4.340715885,-2.108706713,-2.139103889
12.73694946,-4.654948711,-1.912433624,-1.810497522
12.75275781,-3.930956841,-1.73514986,-1.19965899
12.76865747,-2.50466013,-1.695207357,-0.64660424
12.78452661,-0.763012886,-1.439033389,-0.12150532
12.80036499,-0.405816078,-1.209531069,-0.132160723
12.81629541,-0.691218376,-0.740044117,-0.596399248
12.83213379,-2.077861309,-0.424988925,-0.939555228
12.84800317,-4.004937649,-0.128768206,-0.690073907
12.86378052,-5.386385441,-0.091768861,-0.396320105
12.87958887,-5.43977499,-0.15952158,-0.36147958
12.89545776,-4.859447002,-0.365181208,-0.119971901
12.91129663,-4.063466549,-0.477654338,0.033708215
12.92719604,-2.775270462,-0.253288507,-0.110411227
12.94300415,-2.398826122,0.176533937,-0.45011884
12.95875122,-1.78384161,0.713941932,-1.051157475
12.97468164,-2.035505295,0.959805608,-1.447864532
12.99045923,-1.047698975,1.303622961,-1.261538863
13.00632837,0.582684517,1.134163141,-0.889049172
13.02216675,3.27622509,0.672007203,0.099075258
13.03800562,5.452199936,-0.084914923,0.918496251
13.05387476,6.043066025,-0.53458941,1.238485098
13.06971313,6.887126923,-0.578039706,0.673397779
13.08558228,8.054780006,0.282321572,0.654479623
13.10142114,7.707685471,1.627670646,1.583101153
13.117229,4.802552223,2.410549164,0.0448457
13.13315942,1.218743324,2.016453743,-2.707992554
13.14893701,0.532250404,0.271460772,-2.710496426
13.16477539,2.218521118,-1.63049531,-0.519708097
13.18061426,3.49836731,-3.346566677,2.031704187
13.1963916,3.607157707,-3.910008907,3.375438213
13.21226074,2.253141403,-4.042432308,2.969715357
13.22803833,0.457127571,-3.58876276,1.953369141
13.24390747,-1.822555065,-3.07456255,1.021017671
13.25974634,-2.656932354,-2.525228739,0.84412384
13.2755542,-2.47241354,-1.973325253,0.47878778
13.29142358,-1.732345581,-1.352644682,-0.273245096
13.30720093,-1.350273132,-0.908229053,-1.03433764
13.32310059,-1.765700817,-0.68007201,-1.391508579
13.33890894,-2.837226391,-0.578673244,-1.333122849
13.35480859,-4.214415073,-0.698323727,-0.850609243
13.37070825,-4.889407158,-0.767421842,-0.311493516
13.38645532,-4.452789307,-0.665548682,0.361881375
13.40232422,-4.272767067,-0.589055061,0.665459752
13.41816284,-4.529324055,-0.419108152,0.687995434
13.43397119,-5.268405914,-0.091537476,0.404288769
13.44987085,-5.669751167,0.31572032,-0.002018571
13.46570923,-5.184430122,0.2770648,-0.279027104
13.48157861,-2.556362629,0.225239635,-0.371673197
13.49741724,1.14431572,0.294152975,-0.144567013
13.5132251,3.557395935,0.412959099,0.940327466
13.52912476,4.300599098,0.817674816,1.520017505
13.54490234,4.147843361,1.133434772,0.890283525
13.56068018,4.2111063,1.489236593,-0.691129982
13.57648828,4.656885147,1.54469347,-1.244930029
13.59229614,5.404026031,1.164444447,-0.96522665
13.6081958,6.858700752,0.649926662,-0.532353997
13.62397363,7.448226929,0.378739357,-0.38957119
13.63984253,6.226431847,0.11266613,-0.720672309
13.6556814,3.602013588,-0.224448681,-1.606560707
13.67152002,1.090205193,-1.174405813,-2.530437469
13.6873584,0.445239067,-2.275985718,-2.120147467
13.70313599,0.436320305,-3.181115627,-1.403347492
13.71906641,1.176794052,-3.940756798,-0.338473141
13.73493555,1.863848686,-3.812149048,-0.084212184
13.75071313,1.32757473,-3.203195333,-0.830681682
13.76655151,-0.551620483,-2.32874155,-1.352087259
13.78260376,-2.582339764,-1.615577698,-1.68971014
13.7984729,-3.648993015,-1.397014141,-1.402727365
13.81431177,-3.421667576,-1.070137739,-1.267319679
13.83011963,-3.142362595,-1.003747821,-0.868226707
13.84598877,-1.751665115,-0.760382414,0.09249413
13.86182764,-0.544464111,-0.616151214,0.607527614
13.87772729,-0.417676926,-0.308118939,0.284806252
13.89353516,-1.773220062,-0.087310195,-0.185740948
13.90934351,-3.376642227,-0.001206577,-0.350197434
13.92518188,-5.290050983,-0.088760257,-0.492774069
13.94102075,-6.051673889,-0.179595053,-0.278684735
13.95692041,-6.074302673,-0.344408929,0.039307356
13.97275903,-5.811844826,-0.38912642,-0.055792212
13.98853662,-4.472388268,-0.257269681,-0.20205009
14.00440576,-2.067955971,-0.089330196,-0.539393425
14.02021387,0.719965935,0.188080549,-0.799240112
14.03608301,2.979674339,0.53730607,-0.775745392
14.05192139,3.470222473,0.973470211,-0.025502205
14.06766846,2.558818817,1.154685259,0.246367693
14.08356812,1.806604385,0.856448531,-0.228934288
14.09934595,3.182580948,0.087715507,-0.997180521
14.11524561,6.289394379,-0.495235443,-1.112782121
14.13105347,9.130536079,0.087947965,-0.089563131
14.14692285,8.662824631,1.214283705,-0.221893311
14.16279199,4.958688736,1.983921289,-1.453938127
14.17853906,1.174523354,1.771365762,-2.105701208
14.19446924,-0.158666611,0.294831038,-1.412517667
14.21024658,0.958812714,-1.738247156,0.27523613
14.22608545,2.110933304,-3.853690147,2.811173677
14.24189331,3.70904541,-4.463121414,5.145030975
14.25770166,3.422385216,-4.586516857,5.067322731
14.27369263,2.033680916,-4.164204597,3.605127573
14.28950098,0.085165977,-3.187740088,2.152629137
14.30527856,-2.015038967,-2.199216843,0.691212177
14.32114771,-3.174880505,-1.239609718,-1.533238769
14.33692529,-3.069285393,-0.521656096,-2.825668573
14.35282495,-2.093048573,-0.245061815,-3.230006695
14.36863281,-1.09658432,-0.17372942,-3.214099169
14.38444116,-1.078720093,-0.280302227,-2.77917695
14.4003103,-1.584039688,-0.36737597,-2.045823574
14.41611816,-2.327830791,-0.500875831,-1.752133489
14.4320791,-3.575221539,-0.426025748,-2.003307343
14.44785669,-4.749836445,-0.324456275,-1.70783174
14.46372583,-6.084094048,-0.096067786,-1.055665255
14.47962549,-6.939949989,0.036403537,-0.700749993
14.49552515,-6.992274284,0.20752728,-0.254837751
14.5114248,-6.269207954,0.226533532,-0.176261902
14.52726318,-4.046458244,0.284529805,0.288778424
14.54310205,-1.022502899,-0.010440469,0.363956928
14.55900171,2.749008179,0.057054758,0.618149817
14.57484033,4.581393242,0.287312388,1.292130589
14.59061792,4.530380249,0.460208178,1.530876875
14.60642578,4.289481163,0.840720415,1.087373257
14.62226465,4.380347252,0.977963328,0.053619981
14.63810303,5.459039688,1.041177034,-1.219763994
14.65391138,7.21675396,1.007962465,-1.788892627
14.66981104,7.825594902,1.152562857,-1.682240844
14.68558838,6.57674408,0.733752608,-1.426199913
14.70145776,4.310836792,0.233536959,-1.371970892
14.7173269,1.549910545,-0.753723145,-2.299385786
14.73310449,0.937242508,-1.872680664,-2.014211893
14.74894312,1.591935158,-2.891533375,-1.21126771
14.7647207,1.344446182,-3.592978239,-0.531271577
14.78062036,0.826151848,-3.548320055,-0.338440359
14.7964895,-0.076935768,-2.977419853,-0.338615
14.81229736,-1.743417263,-2.017457962,-1.136407971
14.82816675,-3.359698772,-1.372412682,-1.817814708
14.84400537,-4.440642357,-1.363691807,-1.827780962
14.85981348,-4.051897049,-1.427174211,-1.43376708
14.87568262,-2.268377781,-1.636998177,-0.533066809
14.89149048,0.176785469,-1.574385762,0.239287853
14.90735986,0.629408836,-1.323050261,0.674440026
14.92319849,-0.714985847,-0.952147543,0.691643238
14.93903687,-2.595844269,-0.64280045,0.519088268
14.95493652,-3.969285488,-0.568406284,0.211685479
14.97074487,-4.599987984,-0.635488153,0.284567952
14.98664453,-3.978209972,-0.725224197,1.044828296
15.00242212,-2.83713007,-0.674674034,1.624076009
15.01829126,-2.681697369,-0.479717374,1.237018585
15.03419092,-3.497887135,-0.082726121,0.084913075
15.04999878,-4.138405323,0.381388903,-1.139086723
15.06586792,-2.385266781,0.490240812,-0.677359343
15.08170679,0.485541344,0.566023946,0.305045605
15.09754517,2.882828712,0.720057726,0.517414451
15.11347559,3.458376884,0.729670405,0.11984396
15.12928369,2.487693787,0.654567003,-0.362085938
15.14518335,2.293344498,0.531363368,-1.887245893
15.16102197,3.496306419,0.250147223,-2.300909996
15.17686035,6.320876122,0.366306186,-1.41496861
15.19272949,8.356122017,1.025804996,-0.232895732
15.20853784,7.565452576,2.082534313,0.30970943
15.2244375,3.963979721,2.120221615,-0.731810331
15.24024561,2.069727898,1.033234596,-0.712612152
15.25605347,3.028335571,-0.519625306,-0.172305107
15.27192261,2.975114822,-1.775561571,1.126117587
15.28782227,1.119966507,-2.630688667,2.890432358
15.30375244,-0.306347847,-3.203325272,3.952343464
15.31962158,-1.039670944,-3.48149538,4.169701099
15.33542993,-1.180026054,-3.508583307,3.831848621
15.35136011,-1.495083809,-3.402387142,2.712389708
15.36713745,-1.7374053,-3.287235737,1.353662014
15.38300684,-1.549019814,-2.986831188,4.08E-05
15.39884546,-0.999025345,-2.450327396,-1.066303611
15.41465332,-0.622371674,-1.548435926,-1.885028005
15.43055298,-1.09502697,-0.695135236,-1.88149631
15.44639185,-1.861364841,-0.189893901,-1.798665524
15.46221387,-2.483782768,0.047647417,-1.986832619
15.47805225,-2.976675987,0.142241478,-2.427104235
15.49392163,-3.760510921,0.198173523,-2.735851049
15.50979077,-4.48712635,0.118793726,-2.324833632
15.52559863,-4.289453983,0.083525181,-1.199981928
15.54149829,-4.642334938,-0.055874825,-0.019636795
15.55730664,-4.344105721,-0.105974078,0.930117428
15.57317578,-4.271512985,-0.251650453,1.196644545
15.58904468,-2.292730331,-0.158053875,1.52965951
15.60479175,0.964994431,-0.063352823,1.822735071
15.62066089,3.785532951,0.080389023,1.258052588
15.63646924,5.378399849,0.370567083,0.378112942
15.65227734,5.133813858,0.863316178,0.389440835
15.66811597,3.549581528,1.344744086,0.194639325
15.68389355,2.804530144,1.534713387,-0.967147708
15.69979321,3.471312523,1.270003796,-2.189662933
15.7155708,5.142121315,1.186502099,-2.248522043
15.73140942,5.581353188,1.059625745,-1.975236654
15.74730908,4.376294136,0.722093463,-2.073150873
15.76311694,2.754019737,-0.162505269,-2.28826499
15.7790166,1.717856407,-1.448116779,-1.864074469
15.79485547,1.238397598,-2.64779377,-0.993495464
15.81066333,1.682424545,-3.300898075,0.029742405
15.82653271,2.143912315,-3.419791698,0.934262335
15.84237134,1.557313919,-3.113806725,1.085374832
15.858271,-0.149514198,-2.349197865,0.065445699
15.87407886,-1.664008141,-1.555200219,-1.980075955
15.88994824,-2.670737743,-1.055359364,-2.890118122
15.90581738,-2.398077965,-1.079385281,-1.745589495
15.92159497,-1.671222687,-1.285805225,-0.7220276
15.93749463,-1.546003342,-1.227022767,-0.008186303
15.95330273,-1.650318146,-1.040149689,0.052835271
15.96911084,-1.91887188,-0.659352422,-0.263756394
15.9850105,-2.368802547,-0.585291564,-0.403945714
16.00081836,-3.211914063,-0.440711498,0.0343647
16.01662671,-4.126723766,-0.447011113,0.326316535
16.03243457,-4.637368679,-0.46843791,0.378565788
16.04824292,-4.594405651,-0.44573307,0.570483923
16.06411182,-4.655551434,-0.37385416,0.947933972
16.07992017,-3.593645573,0.023531675,-0.137866974
16.09581982,-2.816056728,0.817289114,-1.908899307
16.11162769,-1.464900017,0.738426566,-1.680626631
16.12743604,1.046969414,0.721688271,-0.036560774
16.14333569,3.087157249,0.515635848,1.491518736
16.15917407,3.487705231,0.749674439,1.531288862
16.17504321,2.076703072,0.673899531,0.693336964
16.19088208,1.400712013,0.195359349,-0.166283011
16.20672046,3.324476242,-0.437789202,-0.715215027
16.22255933,6.221344948,-0.368024826,-0.377171993
16.23833667,7.199680328,0.244043708,-0.055435658
16.25426709,5.961390495,1.437183022,-0.023317575
16.2700752,3.418532372,1.676020026,-0.957178831
16.28597485,1.332522392,0.903927445,-2.028847933
16.30184399,1.173092842,-0.629628897,-1.458293557
16.31765186,2.321334839,-2.195071697,0.113216162
16.33352124,3.992092133,-3.184000015,2.491535664
16.34939038,3.934371948,-3.465441465,3.427564621
16.36525952,2.519210815,-3.031474113,2.149057865
16.38112866,0.208884239,-2.240035772,0.247254968
16.39690625,-2.240651608,-1.491601706,-0.417438388
16.41268384,-3.154046059,-1.340463638,-0.064146996
16.42852246,-2.564415455,-1.201227665,-0.109517038
16.44442212,-2.098556519,-1.101681709,-0.375873208
16.46029102,-1.743960857,-1.044589758,-0.238566577
16.47616016,-1.614108562,-0.947960496,-0.217781305
16.49202954,-2.091168404,-0.722766399,-0.889376163
16.50783765,-3.360394955,-0.557046294,-1.198724508
16.52361523,-5.012276173,-0.599535227,-0.871478617
16.53948438,-5.822770119,-0.864881933,-0.485878766
16.55535327,-4.445374489,-1.047754288,0.027061164
16.57125293,-2.770279884,-1.126256227,0.450506866
16.58712207,-2.320484638,-0.858225584,0.520868719
16.60293042,-3.042898178,-0.367909431,0.199425697
16.61879932,-4.004694939,-0.04971242,-0.281026423
16.63460767,-3.139178753,0.413420796,-0.483493686
16.65044629,-0.786603928,0.519844532,-0.075737864
16.66628491,2.603301048,0.530515075,1.155202627
16.68215405,4.418143272,0.556635737,2.08109498
16.69802319,4.200989723,0.84984231,1.664046884
16.71383105,2.608228683,1.070089698,0.281395376
16.72973071,1.622812271,1.077061534,-1.123764277
16.74556958,2.086997032,0.917722225,-1.191213727
16.76134717,3.603356361,0.857268572,0.037434749
16.77721631,5.290487289,0.779093862,0.690442681
16.79302417,5.784720421,0.542364717,0.323033035
16.80892383,4.47328949,-0.090735316,-1.189909816
16.82470166,3.262454987,-1.251803517,-2.009791613
16.84050977,3.506617546,-2.144526958,-1.144197226
16.85634839,4.079503059,-2.745396852,-0.185352981
16.87215649,3.734518051,-2.942762852,0.102229118
16.88808643,2.106553078,-2.727829933,-0.103021398
16.90386401,0.229872704,-2.156190872,-1.069164991
16.91970288,-1.478399277,-1.516791105,-2.009509802
16.93551074,-2.794435501,-1.010330915,-2.320183516
16.95134961,-2.574089527,-0.928752422,-2.121339798
16.96724927,-1.265603065,-1.031810999,-1.918443084
16.98308789,0.217370987,-1.032463908,-1.313945055
16.99886548,1.00505352,-0.999432743,-0.474141806
17.01476514,0.177936554,-0.798583925,-0.009699911
17.030573,-1.60696125,-0.532896459,-0.017338395
17.04644214,-3.291464806,-0.323827982,-0.310758263
17.06225049,-4.631475449,-0.232627511,-0.048451781
17.07808887,-5.301799774,-0.269114017,0.308247447
17.09395825,-5.688189983,-0.297303557,0.629786551
17.10976636,-5.614719868,-0.416957498,0.572872698
17.12566602,-4.824189663,-0.418361783,0.304596663
17.14147412,-3.904146194,-0.124183416,0.055030346
17.15734326,-2.846995831,0.230322242,0.306079209
17.17324292,-1.138168335,0.537395358,0.779529393
17.18902051,0.518353462,0.651100039,0.548727572
17.20492017,1.838487625,0.685577035,0.621423483
17.22075879,2.584374428,0.903194785,0.738066494
17.23659717,1.932435036,0.92376852,0.204774678
17.25246655,1.401603699,0.606319904,-0.631737888
17.2682439,2.606143951,-0.050055742,-0.421586514
17.28408276,5.879701614,-0.68028307,0.13602519
17.29986011,8.862976074,-0.188738942,0.453398407
17.31569897,8.055508614,0.616669536,0.96912694
17.33159863,4.561400414,1.280549407,0.578885198
17.34740649,1.655187607,1.222869992,-0.998003006
17.36333691,0.689856529,0.254038215,-1.601142168
17.37917554,2.236854553,-0.866137624,-1.079117179
17.39498364,2.629389763,-1.836628079,0.291463137
17.41085254,1.899123192,-2.57791853,1.147098541
17.42659961,1.384922981,-2.751355171,1.331030965
17.44246875,0.379246712,-2.739302158,1.166191936
17.4582771,-1.169928551,-2.530862093,0.740600348
17.474146,-2.422228336,-2.363916397,0.302386165
17.49001514,-2.564431667,-2.183670044,0.105310202
17.50582349,-1.481431961,-1.839244962,0.433646858
17.52172314,-0.367340088,-1.304026008,0.103292227
17.53753125,-0.045355797,-0.960549474,-0.614805698
17.55333936,-0.798633575,-0.582021892,-1.411204338
17.56926953,-2.346540451,-0.348911881,-1.520397305
17.58504712,-4.087039471,-0.267022491,-1.275946975
17.60088574,-4.709846497,-0.26036346,-1.05348897
17.61672412,-4.725556374,-0.29913795,-0.639927983
17.63253247,-4.285485744,-0.350117564,-0.317854673
17.64843213,-4.033061981,-0.397307754,-0.10502845
17.66424023,-4.134705544,-0.260160923,0.223168552
17.68010938,-4.7165308,0.016386509,0.223273158
17.69591724,-4.206781387,0.299295306,-0.13429144
17.71172559,-1.821521759,0.494212389,0.278142929
17.72762524,1.976593018,0.41865766,1.209956646
17.74346362,3.930427551,0.441520095,2.36006999
17.75933276,3.447944641,0.656881094,1.7400527
17.77514111,2.301410675,0.906644464,0.282249659
17.79094922,2.717215538,0.938562751,-0.894163609
17.80681836,4.457897186,0.714532256,-1.467373729
17.82265698,6.061629295,0.847198009,-1.334329724
17.83852588,6.433546066,0.973003387,-0.944994867
17.85442554,5.062458992,0.87601912,-1.338306785
17.87035596,2.993638039,0.181815863,-2.363404274
17.88622485,2.17616272,-1.249055147,-2.237644196
17.9020332,3.076830864,-2.5485425,-1.057867408
17.91796338,3.67852211,-3.163600445,-0.036737055
17.93374072,3.170053482,-3.240536213,0.549474597
17.94960986,1.598632813,-2.771024704,-0.210490718
17.96550952,-0.390148163,-2.11961031,-1.11681819
17.98134839,-2.509472847,-1.516592383,-1.885854244
17.99724805,-3.951140404,-1.111485839,-2.451505661
18.01308667,-3.278799057,-1.152001143,-2.160934925
18.02889478,-1.617214203,-1.302449465,-1.431522131
18.04479443,0.456442833,-1.406557441,-0.632857621
18.06057202,2.089902878,-1.185982108,-0.168634117
18.07647144,0.420658112,-0.754726171,0.021623701
18.0923103,-1.602074623,-0.459530175,-0.038877547
18.10811816,-3.468472004,-0.22323668,-0.221591592
18.12395703,-4.540727615,-0.126489639,-0.210474253
18.13976489,-4.927881718,-0.259658933,0.081397176
18.15566455,-4.565741062,-0.214216828,0.381197155
18.17150342,-4.335624218,-0.221077681,0.600052774
18.18728101,-4.051525593,-0.119752526,0.795982599
18.20315015,-4.193509102,0.116020322,0.092057228
18.21895801,-3.970661163,0.62167871,-0.656367183
18.23476636,-3.104475021,0.851260304,-1.299978137
18.25054395,-0.62372303,0.928257585,-1.49026525
18.26638257,2.228094101,1.100954413,-0.955792785
18.28225146,3.058983803,1.453243494,0.326853752
18.29805981,1.826293945,1.886755824,1.111881971
18.31398999,1.346007347,2.008056164,0.01497376
18.32982861,2.73712635,1.767362714,-1.062002301
18.34563672,5.008032799,1.167341948,-1.142370343
18.36144482,7.708457947,0.996801972,-1.048410296
18.37725293,7.913334846,1.194666266,-0.076399088
18.39315259,5.924077034,0.685920596,-0.145860672
18.40899121,4.06855011,-0.399836302,-0.509136915
18.42479932,4.303229332,-1.623169661,-0.607037663
18.44063794,4.430942535,-2.706674576,0.78706634
18.45644604,3.174240112,-3.392560959,1.626672506
18.47237598,1.231297493,-3.500349998,1.490360737
18.48818433,-0.451841354,-3.279742241,1.061877131
18.50402271,-1.510672569,-2.848389149,0.726869702
18.51989209,-2.14392662,-2.349598408,0.195909023
18.5357002,-2.05912447,-2.071557283,0.039958715
18.55159985,-1.09474659,-1.832115293,0.305434227
18.56740796,-0.233786583,-1.722150683,0.790783167
18.58321582,0.185455322,-1.48004365,1.151530027
18.59908496,-0.637639046,-1.209692955,0.66215539
18.61492383,-2.116492748,-0.912075996,-0.087112546
18.63082349,-3.210925579,-0.714252293,-0.56731379
18.64663135,-4.178290844,-0.666662753,-0.79868573
18.66240918,-5.199102402,-0.641064525,-0.6604563
18.67827808,-5.660357475,-0.694273591,-0.662846088
18.69408643,-5.482082844,-0.766127825,-0.798809826
18.7100166,-5.285990238,-0.535095334,-0.653606772
18.72585522,-5.72900629,-0.296277761,-0.659009755
18.74163281,-5.616166115,0.035338521,-0.951622128
18.75750195,-4.281267166,0.473632455,-0.994534135
18.77327954,-1.008453369,0.960137129,-0.391755462
18.7890874,2.747535706,1.322833538,0.251502961
18.80492627,4.081729889,1.667083859,0.307587206
18.82070386,4.380548477,1.932021141,-0.240383089
18.83660327,4.362202644,2.191393852,-1.069734573
18.85244214,4.024731636,2.280806541,-1.339370131
18.86831128,3.989686966,1.942239881,-1.170434237
18.88414966,5.921310425,1.349676967,-1.214064121
18.89995801,7.536035538,1.113413811,-0.510765195
18.91582715,6.627965927,1.072207093,-0.249733388
18.93163525,3.70381546,0.672447205,-0.8614043
18.94753491,0.987884521,-0.256930947,-1.763664484
18.96334277,0.594121933,-1.401184916,-2.623228073
18.97921191,1.935255051,-2.543024063,-2.171520233
18.99511157,2.644399643,-3.286336899,-0.942639053
19.01088916,2.658529282,-3.421907425,0.110502914
19.02678882,1.227972031,-2.915096521,-0.115448989
19.04259717,-0.787296295,-2.199602604,-0.602049947
19.05840503,-2.953339577,-1.68671751,-1.239051104
19.07421338,-3.292294502,-1.424007893,-1.953980207
19.09002148,-2.732907772,-1.396486282,-1.903930664
19.10592114,-1.265625954,-1.216348886,-1.43058908
19.12175977,-0.77630043,-0.922947645,-0.879158616
19.13756763,-0.92467308,-0.467218876,-0.441276997
19.15346729,-1.353962898,-0.229017258,-0.036379546
19.16924487,-2.177199841,-0.582261205,-0.261472732
19.18514453,-2.808975697,-1.011080742,-0.331020892
19.2009834,-3.588736534,-1.336525083,0.205718994
19.21688306,-4.775950909,-1.421756983,0.824019432
19.23278247,-5.614775181,-1.049443245,0.860037208
19.24859082,-5.536936283,-0.390884399,0.693126202
19.26445972,-3.807042599,0.492189169,0.361983538
19.28023755,-1.92324543,1.110276222,-0.03753078
19.29613721,-0.741829872,1.512477875,-0.532390654
19.31200635,0.102585793,1.666660547,-0.444878519
19.32778394,0.310688972,1.730301857,-0.010122001
19.34368359,0.881290436,1.852782011,-0.206336975
19.35955273,1.975779533,1.800703287,-0.796640813
19.37539111,3.027888298,1.55504775,-0.935125411
19.3912605,4.277684212,1.129465342,-0.467071712
19.40706836,6.18366909,0.758036137,-0.226293147
19.4229375,7.952911377,1.064194918,0.038257241
19.43874585,6.416915894,1.690404892,0.571691155
19.45464551,3.801929474,2.144679308,-0.14573884
19.47051465,1.671808243,2.114660501,-1.560441971
19.48635327,2.056025505,1.164258003,-2.208489895
19.50234448,2.963374138,-0.165938616,-0.931966424
19.51815234,3.100561142,-1.375105858,0.723112702
19.53396069,2.443799019,-2.203664064,2.116479874
19.54979907,1.071372032,-2.718467951,2.979722023
19.56563794,0.17380619,-2.851990223,2.682634592
19.5815376,-0.889649391,-2.842067719,1.789139032
19.59737622,-2.219399452,-2.835526466,1.008226037
19.6132146,-3.174388885,-2.725685596,0.784870505
19.62908398,-3.607511997,-2.546163321,0.804136634
19.64489185,-3.420203209,-2.241433859,0.598611474
19.6607915,-2.352582932,-1.787035227,0.150745511
19.67663037,-1.46933651,-1.389474034,-0.198723912
19.69246899,-1.2029953,-0.674091101,-0.841231346
19.70830737,-1.930021286,-0.212467074,-1.866151094
19.72408521,-2.908774376,0.136885643,-2.183469534
19.73998486,-3.453804493,0.018706441,-1.996115088
19.75582324,-3.33545351,0.068881392,-1.54814136
19.77160083,-3.675634861,0.044864297,-0.915296078
19.7874397,-3.987201691,0.085310817,-0.501906157
19.80327832,-4.117694855,0.064355969,-0.192485988
19.81908643,-3.22541666,0.28811276,-0.181394637
19.83492505,-1.667590618,0.29363358,0.391038775
19.85073315,-0.045222282,0.281788468,1.545290828
19.86663281,2.142111778,0.186731696,2.00330615
19.88244092,3.870656013,0.362498045,1.723242521
19.89834058,4.439170837,0.682688832,1.408498287
19.91414868,3.450966835,1.089245319,0.721155703
19.92995654,2.687684059,1.571642041,0.190138817
19.94579541,3.571592331,1.958315372,-0.480436683
19.96166455,6.390396118,2.159810543,-1.043660879
19.97753369,7.094086647,1.977192283,-1.603079081
19.99337207,5.625558853,1.602494359,-1.974494219
20.0091499,3.563075066,0.393122196,-1.96425128
20.02498853,2.627267838,-1.399314284,-0.755609751
20.04079663,2.678803444,-2.589313984,0.373859167
20.05669629,1.552506447,-3.408311844,1.207658052
20.07250439,1.167264938,-3.546920061,0.586104572
20.08828174,1.16402626,-3.132941723,-1.280207157
20.10415112,0.143727303,-2.612440825,-2.138192177
20.11995898,-1.497200012,-2.177865982,-2.135160923
20.13582813,-2.369522572,-2.04684639,-1.937196732
20.15163647,-1.601655483,-1.701769114,-1.358971119
20.16747485,-1.017758369,-1.288428307,-0.542084754
20.18337451,-1.163729668,-0.70672363,0.01960969
20.19912158,-1.277686119,-0.28530705,-0.012260437
20.215052,-2.059940338,0.041558981,-0.244058967
20.23089038,-3.50578928,0.256386399,-0.569519401
20.24672925,-4.715155125,0.191989899,-1.020116329
20.26262891,-4.809226513,0.101676226,-1.113591313
20.27840649,-4.085347652,-0.297495127,-0.632117212
20.29430615,-2.917899609,-0.513950229,-0.313340425
20.31011426,-2.787148476,-0.388113856,0.118126631
20.32592236,-3.266697407,-0.292552114,0.229239821
20.3417915,-2.964622498,-0.077077389,-0.060474753
20.35756909,-1.703016281,0.315235734,-0.679394126
20.37349902,-0.21262455,0.685812593,-0.724287152
20.38927661,0.323709488,1.280890942,-0.222282529
20.40511548,-0.968922615,1.748247027,0.012414813
20.42098462,-1.032599449,1.926201701,-0.656112432
20.43673169,1.632591248,1.738972545,-1.301435232
20.45266187,5.139291763,0.942829728,-1.123253226
20.46846997,7.786789894,0.566739321,0.389889121
20.48427808,7.627253532,0.554105401,0.986034989
20.50017773,7.094950676,1.439114332,0.749666333
20.51614331,4.987547874,2.074380159,-0.551545024
20.53204297,2.809539795,1.632012367,-1.734750152
20.54788184,2.168955803,0.294639587,-1.994898558
20.56372021,2.922494888,-1.245044112,-0.9107427
20.57961987,2.46817112,-2.187906981,0.873352528
20.59539771,0.815803528,-2.775203228,1.907816887
20.61123608,-0.701515198,-2.928217649,2.159294605
20.62707471,-1.422023773,-2.879152775,1.794390202
20.64288281,-1.086169243,-2.778989553,1.137470841
20.65881323,-0.643535614,-2.624217033,0.88040638
20.67459082,-0.877903938,-2.394054651,0.886448503
20.69049048,-1.025958061,-1.963803768,0.437854171
20.70632886,-1.197821617,-1.512521744,0.322183132
20.722198,-1.58449173,-0.940265059,0.13102293
20.73806714,-2.306948185,-0.518174231,-0.216830492
20.75381421,-2.733981609,-0.314661205,-0.738609612
20.76974438,-3.182689667,-0.178963482,-1.152672052
20.78555273,-3.870942593,-0.07878226,-0.96942246
20.8013606,-4.381896973,-0.090319991,-0.975824177
20.81722974,-4.70165205,-0.073986411,-0.965769053
20.83300732,-4.721264839,0.016740322,-1.103678107
20.8489375,-4.070622921,0.224019289,-0.712931037
20.86477612,-2.809811115,0.422375083,-0.040906012
20.88061499,-1.543198586,0.746785283,0.557369232
20.89648389,-1.403120995,0.98150444,0.6876899
20.91229199,-0.340819359,1.174009919,0.881969333
20.92819165,2.622360229,1.309394121,0.793957591
20.94403052,5.160573959,1.403675199,0.96726799
20.95983838,5.256604195,1.399332762,1.213770866
20.97570776,4.446876526,1.17644763,0.73248142
20.99148511,4.011450768,0.856541514,0.129809916
21.00732397,4.984788895,0.754192114,0.179479301
21.02316235,6.302490234,0.541049838,0.131931365
21.03903149,6.258170128,0.423809409,0.10527128
21.05490063,4.201247215,0.129750013,-0.672172308
21.07067822,3.049405098,-0.546470881,-1.631669521
21.0866084,2.965673447,-1.325646043,-1.488151073
21.10238623,2.911126137,-1.907011628,-0.990570068
21.11816382,1.89777565,-2.270343065,-0.852587759
21.13403296,0.29853344,-2.16116333,-0.859130561
21.14987134,-1.416880608,-1.868338585,-1.141918421
21.16574048,-3.114411354,-1.433172703,-1.583951116
21.18154858,-3.361706734,-1.155554771,-2.150539398
21.19735669,-3.083844662,-1.037443399,-2.76402998
21.21322607,-1.734250546,-1.090228558,-2.862826347
21.22900342,0.271410942,-1.083536863,-2.133416653
21.2448728,0.575140953,-0.945334733,-1.34700799
21.26065015,-0.819757462,-0.612569571,-0.840288401
21.27645825,-3.18983078,-0.368738413,-0.670029521
21.29232739,-4.472811222,-0.164823294,-1.192562819
21.30813574,-5.486837387,-0.111473799,-0.614277959
21.32397412,-6.043207169,-0.222557545,0.000127316
21.33978247,-5.856207848,-0.264290214,0.262295485
21.35555981,-4.909255028,-0.391011834,0.154462457
21.37145947,-3.763776302,-0.163098812,0.475150108
21.38735913,-2.868922234,0.131793141,-0.003938794
21.40325879,-1.618332386,0.606800795,-0.23766768
21.41903638,0.788240433,0.699077845,-0.278398573
21.43487524,3.199378967,0.797404885,0.255844235
21.45071362,3.526515007,1.003207207,1.003443956
21.46652197,2.645170212,1.409233689,1.144374371
21.48239111,2.743404388,1.597905159,-0.200924873
21.49819897,3.284772873,1.540626407,-1.498752117
21.51400708,4.126190186,0.958975196,-1.389733911
21.5299375,6.230582237,0.638505101,-0.294221401
21.54580664,7.825741768,0.718392849,0.334807992
21.56167554,6.462464333,1.08368361,0.276804566
21.57751416,3.11740303,1.220898628,-0.177155256
21.59329175,0.869753838,0.832092762,-1.175694466
21.60916089,1.252719879,0.082915306,-1.494626284
21.62493848,2.060603142,-0.808408141,-1.034886122
21.64083813,1.454159737,-1.760574579,0.776088476
21.65661572,0.150017738,-2.266382456,1.982157111
21.67242383,-0.58662796,-2.596779585,2.184543371
21.68832349,-0.668190956,-2.572647095,1.772188544
21.70413159,-1.160485268,-2.51642251,0.972969174
21.71993994,-1.386959076,-2.369355202,0.369777918
21.7357478,-1.256329536,-2.261344671,0.374582529
21.75155615,-1.256773949,-2.063964128,1.014944792
21.76745581,-1.043915749,-1.58567214,0.726709306
21.78332471,-0.248503685,-0.728581488,-0.376235902
21.79919385,-0.614659309,-0.204136133,-1.757150292
21.81497144,-1.363451004,0.464314818,-2.680341721
21.83077954,-2.757331848,0.487274766,-2.560768127
21.8466792,-4.038619518,0.242869139,-1.711694241
21.8624873,-4.411763668,-0.12470603,-0.866509616
21.87838696,-4.881578922,-0.376892805,-0.198152006
21.89419531,-5.022195339,-0.454525471,0.353177667
21.91003369,-4.769282818,-0.214169502,0.584590673
21.92590283,-4.349112511,0.283317447,0.058307171
21.94168042,-3.175134659,0.571318507,-0.497459948
21.95761084,-0.378741264,0.718191266,-0.214572549
21.9734187,1.819550514,0.663939714,0.869303405
21.98928784,2.94258976,0.850283742,1.573804617
22.00506543,2.518442154,1.292944551,1.738653541
22.02087378,2.446386337,1.6218822,1.02077961
22.03671216,3.570780754,2.093785286,-0.316068083
22.05252051,5.092004776,2.394043446,-1.902054787
22.06832837,7.139249802,2.616769075,-2.660297871
22.08422803,8.015910149,2.72268343,-2.752408981
22.10003613,6.204961777,2.38969326,-2.725296974
22.11596655,3.987365723,1.6340096,-2.402977467
22.13171362,2.128551483,0.024123073,-1.852368116
22.147552,1.49355793,-1.821616054,0.295455754
22.16348242,0.929994583,-3.155002117,1.456557274
22.17929028,0.140234947,-3.777399778,2.030004501
22.19512915,-0.269812584,-3.74837327,1.944493294
22.21093701,-0.82392025,-3.375955105,1.541698813
22.22674512,-1.787094116,-2.789838076,0.548580885
22.24264478,-2.21325922,-2.003869295,-0.501167059
22.25851392,-2.052098274,-1.396808147,-1.108258963
22.27435254,-1.426196098,-0.82848537,-1.345038414
22.29016064,-0.859297752,-0.366986275,-1.383758426
22.30602979,-0.61369133,0.094692826,-1.077196479
22.32189893,-1.053458214,0.31521368,-0.707307935
22.33773779,-1.839476585,0.466198802,-0.656148195
22.35369824,-2.661448479,0.526472569,-0.696789324
22.36947583,-3.392373562,0.417216778,-1.173671603
22.38528418,-3.84392786,0.26250875,-1.178214073
22.40115332,-4.092790604,-0.049123049,-0.806430221
22.41693091,-4.055270672,-0.290211916,0.084787726
22.43283057,-4.056973934,-0.335050583,1.118435502
22.44866895,-4.151818752,-0.162204862,0.892313242
22.46444678,-3.605124474,0.284894705,-0.534041107
22.48031567,-1.598340034,0.674211383,-1.135151982
22.49609351,1.512307167,0.724762917,-1.03640151
22.51199316,3.672078133,0.958969831,-0.108754873
22.52783154,3.776968956,1.267767429,1.047218204
22.54370068,1.969101906,1.521894574,1.09641695
22.55960034,1.290298462,1.425938487,0.02868247
22.57543921,2.974297523,1.101013303,-1.308721185
22.59136914,5.215247154,0.794471145,-1.00214088
22.60723828,6.471588135,1.005957961,0.018651366
22.62304639,5.786207199,1.621215105,0.766471028
22.63897681,3.691961288,1.873731971,-0.42372191
22.65472388,2.398962021,1.259026289,-1.568445325
22.67062354,2.962610245,-0.144771576,-0.964074254
22.68646191,4.467936516,-1.3030864,0.095654488
22.70227026,3.951853752,-2.233567238,1.786876798
22.71813916,1.660275459,-2.587490559,3.193964005
22.73391699,-0.665220261,-2.799640179,3.207908869
22.74981665,-1.678740025,-2.730353355,2.376630306
22.76565503,-2.011544704,-2.298545599,1.34726882
22.78143262,-2.446024418,-1.729044318,0.631995678
22.79730176,-1.791399956,-1.136499882,-0.494830787
22.81311011,-1.07729435,-0.697592139,-1.207611322
22.82894849,-0.684550285,-0.383219123,-1.457967758
22.84478711,-0.569881439,-0.173625827,-1.583946228
22.86062598,-1.163965225,0.029876351,-1.923746586
22.87649487,-2.478199482,0.039653897,-2.02641511
22.89227271,-4.096406937,0.032591939,-2.163410902
22.90817236,-5.436078072,-0.065023661,-1.689093351
22.92401074,-5.730703831,-0.264613867,-0.9190467
22.93984937,-5.486982346,-0.478619099,-0.196415603
22.95574902,-5.473445415,-0.459098935,0.632751107
22.97158789,-5.184925079,-0.2107054,1.407497883
22.98748755,-4.675414085,0.144586921,1.706816912
23.00329541,-3.189853668,0.332704663,1.099374533
23.01913428,-0.358105659,0.533952713,0.38486284
23.03500317,2.846017838,0.727281451,0.40865463
23.05078101,4.732988358,0.881942391,0.81622088
23.06671094,5.017077446,1.249220848,0.703314185
23.0825498,3.828720093,1.742153883,-0.172446579
23.09835767,3.603066444,2.102748394,-1.80379045
23.11422705,4.575936317,2.246975422,-2.255011797
23.13006543,6.210550308,2.274839163,-1.221442819
23.14593457,6.767502785,2.198404551,-0.257277668
23.16174292,5.712656975,1.806494832,-0.625460684
23.1775813,3.477153778,0.819329739,-0.775657952
23.19345044,2.236026764,-0.75370717,-0.72198379
23.20922803,2.194629669,-2.094127417,-0.092591345
23.22512769,2.331188202,-2.829014301,0.58465457
23.24093604,2.004633904,-3.088486671,0.888136208
23.25671338,1.347367287,-2.811307669,0.377351105
23.27258276,-0.115086555,-2.172826767,-0.520161033
23.2884519,-2.30856657,-1.348964453,-1.424119473
23.30429028,-3.809942245,-0.578078508,-2.121748924
23.32012891,-4.104015827,-0.249655366,-2.73192668
23.33590649,-3.062773228,-0.347909927,-2.418539524
23.35180615,-1.150303841,-0.777908564,-1.658111811
23.36764502,0.396681786,-1.087966204,-0.692630827
23.38354468,0.512924194,-0.927607059,-0.196981192
23.39941382,-0.88536644,-0.706475317,-0.081598818
23.41519141,-2.779155254,-0.611777544,-0.124299824
23.43106055,-3.830767632,-0.499528885,-0.354993403
23.44683813,-4.394818306,-0.354938269,-0.441837847
23.46273755,-5.07105875,-0.448194146,-0.039493799
23.47854565,-5.308465004,-0.506169796,0.801652908
23.494354,-5.04497242,-0.631839216,1.001747251
23.51025366,-3.901992321,-0.24802506,0.487063289
23.52603101,-2.572343349,0.058280945,-0.062745333
23.54202246,-0.771839142,0.66892767,-0.396815896
23.55783032,1.103147507,1.304822445,-0.467550337
23.57360791,2.355815887,1.711660504,-0.549813569
23.5893855,2.5294981,2.144966602,-0.805624008
23.60519385,2.476941109,2.167151451,-1.247075081
23.62103223,3.859110832,1.872640491,-1.770394564
23.63684033,5.683594704,1.310012102,-2.287738323
23.65264844,8.096020699,1.370236516,-1.731740355
23.66851758,7.417655945,1.929231405,-0.846741319
23.68429517,4.430214882,2.42304039,-1.468424559
23.70016431,0.817682266,1.975945115,-1.766464233
23.71600317,1.106431961,0.746509194,-1.683243394
23.73187231,3.039981842,-0.774653673,-0.764234781
23.7476499,3.657583237,-1.824313283,1.642023683
23.76345776,2.617048264,-2.472166061,3.638689518
23.7793269,0.967894554,-2.572052956,4.221886158
23.79516577,-0.860159874,-2.145562649,2.769461632
23.81094312,-2.208211422,-1.672334433,0.947146654
23.82687329,-2.771458149,-1.430476427,0.073721886
23.84268164,-2.158442974,-1.473638654,0.20713985
23.85861182,-0.69701767,-1.454039574,-0.200136065
23.87441968,0.77395916,-1.26819551,-0.686034799
23.89025854,1.511959076,-0.941091835,-0.946402371
23.90612769,1.090669632,-0.57877332,-1.246277571
23.92193555,-0.937522888,-0.307716966,-1.611885548
23.93780469,-3.192720413,-0.049567223,-1.571172357
23.95367407,-4.773008347,-0.131124854,-0.996153772
23.96945142,-5.739227295,-0.142184973,-0.352160096
23.98535107,-6.036403656,-0.165552855,0.06221056
24.00112866,-5.334047318,0.033700705,0.109615922
24.01705884,-4.048233986,0.298642278,0.268972278
24.03289746,-3.401108742,0.615346909,0.429594994
24.0487666,-3.395287514,0.643233299,0.012583375
24.06463599,-2.195730686,0.788791299,0.216096878
24.08044385,0.97909832,0.674785018,0.700982451
24.09631299,4.130186081,0.670755267,1.317996144
24.11215186,4.782271385,0.790128589,1.722468376
24.12792944,2.895242691,1.197934747,1.067964315
24.14379858,1.516444206,1.593208551,0.019690216
24.15963696,1.76581955,1.978618622,-1.85810864
24.17553662,3.93133831,2.100017548,-2.160573483
24.19134497,6.122952461,2.175782681,-1.902695894
24.20721387,7.099513054,2.208345175,-2.130418777
24.22311377,5.102889061,1.587921143,-2.363230705
24.23889136,3.552955627,0.422105908,-2.517782211
24.25469922,2.623171806,-1.065648317,-1.894360781
24.27056836,2.144273758,-2.116299868,-0.873443663
24.28640723,1.1413908,-2.538072586,0.037808239
24.30230688,0.47205925,-2.708734989,0.442571104
24.31814526,-0.310036659,-2.541193962,0.268263221
24.3340144,-1.200424194,-1.990127087,-0.656920373
24.34985327,-2.258481979,-1.410496473,-1.283085346
24.36572241,-3.237543106,-1.083702087,-1.924288273
24.3815,-3.358672142,-1.163033485,-1.483087182
24.39733838,-2.587771893,-1.284773827,-0.602714419
24.413177,-1.374218941,-1.238801122,-0.032112777
24.42898511,-0.627575874,-1.064817429,0.309747577
24.44479346,-0.978430748,-0.602509618,0.571630478
24.4606626,-2.126968384,-0.286188781,0.482706547
24.47640967,-3.293070316,0.054266572,0.159055471
24.49230933,-4.234708309,0.270599127,-0.430379093
24.50814771,-4.840707779,0.381276608,-0.940038443
24.52392529,-4.344843388,0.419353366,-0.226317048
24.5397334,-3.087557793,0.429712296,0.685863137
24.55566357,-1.627241135,0.381676197,1.072757602
24.57153271,-1.578104973,0.466360807,0.117786169
24.5873103,-1.502447128,0.731726646,-1.112662792
24.60317944,-0.532295227,0.959713936,-1.382395506
24.61904858,1.280373573,1.038167715,-0.955461979
24.63482617,3.478254318,1.331050396,-0.112818122
24.65072583,3.32585144,1.510064483,0.293988466
24.66653394,1.656200409,1.556493878,0.025465846
24.68234204,0.691050529,1.26316762,-0.736508191
24.69818091,1.893868446,0.509304166,-0.850648999
24.71401929,4.001749039,0.391910672,0.128831983
24.72985815,5.660180092,0.683555126,1.784364462
24.74566602,5.927380562,1.116042376,1.980658174
24.76150488,4.769751549,0.682338953,0.756125093
24.77737402,4.207253456,-0.260365367,0.090769529
24.79315137,4.197454453,-1.319764256,0.127975583
24.80898999,3.931866646,-2.139875889,0.798082352
24.82476782,3.344814301,-2.30815649,1.590165019
24.84057568,1.964998245,-2.438575268,2.147464275
24.85644482,0.470685005,-1.979035497,1.449344754
24.87225293,-1.47358036,-1.539298177,0.350912809
24.88818335,-2.961751461,-1.104815364,-0.527794361
24.90402173,-4.054069042,-0.819368958,-1.034301281
24.91979932,-4.480150223,-0.689827383,-0.730015993
24.93572974,-3.994383812,-0.680487752,-0.705554843
24.95150708,-2.275084496,-0.54196018,-1.051909804
24.96740674,-0.881364822,-0.465546072,-1.10584712
24.98321484,-1.15925312,-0.201543987,-1.360183716
24.99902319,-2.566839695,0.083296478,-1.599161625
25.01486157,-4.475120068,0.246539712,-1.73820734
25.0306394,-5.639812946,0.302960098,-1.604979873
25.04656958,-5.390069008,0.595934868,-1.266288757
25.06234692,-5.426269054,0.637632012,-0.652714372
25.07815503,-4.875247002,-0.128574789,0.052242637
25.09399365,-1.419965744,0.153769553,0.540554762
25.10977124,-2.993047714,0.347834229,0.987188935
25.12564038,-0.310738564,1.269282103,0.380351186
25.14144849,-0.116283417,1.457238436,0.372541666
25.15725659,2.25407505,1.427671432,1.586027384
25.17312598,1.951307297,1.448799729,2.492696762
25.18890332,0.963531494,1.720628023,1.979044557
25.20480298,0.71241188,1.627498865,0.307512164
25.22058057,1.53093338,1.441312551,-0.638412774
25.23638892,5.844581604,1.212236643,-0.847245932
25.25231909,10.35408401,1.480695724,-1.232109904
25.26809644,6.952847481,0.892119288,-0.945864916
25.28396558,5.27768898,0.280290037,-0.759799838
25.29974316,2.626918793,-0.389079869,-1.068951964
25.31558203,2.005604744,-1.293171644,-0.560246229
25.33145093,3.669976234,-2.483789921,1.354978085
25.34728955,3.235693932,-2.975333214,1.71856761
25.3630979,-0.325105667,-2.548920631,0.798803687
25.37893628,-1.913527966,-1.822418332,-0.464663386
25.39477515,-2.674893856,-1.201302767,-3.427791119
25.41058301,-0.407171249,0.477708995,-6.482744217
25.4263606,0.665595055,-1.898645401,-1.226682663
25.44226025,-1.388571739,-1.83311224,-0.333817184
25.45809888,-0.951063156,-1.648459911,-0.376818687
25.47390698,-0.569032669,-0.846327186,0.678260505
25.48980664,-1.694334984,-0.228415862,-0.031259358
25.50564526,-3.338824749,0.48301065,-1.101624012
25.5215144,-5.749670506,0.857071996,-1.306764364
25.53729199,-6.478983879,1.057917953,-0.724603593
25.55310864,-5.73113203,1.231287003,-0.895060658
25.56894751,-5.098408699,1.267838836,-1.479646325
25.5847251,-4.827070236,0.611500323,-1.207766533
25.60062476,-3.60904932,0.816905081,-0.911790073
25.61646338,-2.520532608,1.003508806,-1.135980368
25.63227124,-1.488138199,1.223642111,-1.282410502
25.6481709,-0.858696938,1.39701128,-1.444965363
25.66394849,0.837659836,1.225924253,-1.421634197
25.67975684,3.455342293,1.207345247,-1.039486051
25.69559521,3.964748383,1.327733755,-0.967013538
25.71143408,3.076544762,1.231644034,-0.852850616
25.72730322,3.485459328,0.777749062,-0.507515907
25.74311108,4.505391121,0.134028554,-0.451566815
25.75898047,5.289093971,0.13783139,-0.300094962
25.77475781,4.223824501,0.744739115,-0.227868915
25.79059668,3.187249184,1.185647726,0.262381315
25.80643506,3.849393845,0.410425186,1.00380218
25.82227368,5.240049362,-1.219188213,1.720322847
25.83817334,5.741203308,-2.439596653,1.553620338
25.85401221,4.729551315,-3.22397089,2.148353577
25.86985059,2.412477493,-2.972849369,2.044608116
25.88575024,-0.016197205,-1.928963184,0.982450008
25.90152808,-1.865746021,-0.982624531,0.67962575
25.91739697,-2.188569069,-0.545024633,0.68810904
25.9331748,-2.512396812,-0.361081034,0.361454844
25.94901318,-2.656279564,-0.612111449,0.010966182
25.96485205,-1.877950668,-0.83935535,0.092861056
25.98065991,-1.568509102,-1.153498411,-0.04405582
25.99655957,-2.020020485,-0.705689788,0.274616361
26.01242871,-2.260545254,-0.401108086,-0.219188869
26.02826758,-2.982705593,0.111695349,-0.615596294
26.04413672,-3.811029434,0.478395522,-0.929851294
26.05988379,-3.853572369,0.491762042,-1.276607752
26.07581396,-3.385239124,0.410887182,-0.918623626
26.09162183,-2.796014786,0.456853628,-0.618937492
26.10746069,-3.41865778,0.683456421,-0.563757539
26.12332983,-3.778587341,1.122478724,-0.442012846
26.1391377,-3.505611897,1.1809901,-0.486141771
26.15506787,-2.23641634,1.21768558,-0.262655616
26.17090674,-1.068014145,1.05742085,-0.195537984
26.18674536,0.801960945,1.035875797,0.268553019
26.20267554,2.308210373,1.133780479,0.192698896
26.21845288,2.417699814,1.395392895,0.553468943
26.23432227,2.545397758,1.452572346,0.435372353
26.25016089,2.383665085,1.371424913,-0.113414526
26.26596899,3.459445953,0.58582294,-0.217636853
26.28180762,5.518196106,0.557570279,0.581442654
26.297646,5.421010017,0.915460944,0.779069543
26.31354565,4.543483734,0.782912612,-0.199624717
26.32938452,4.404441833,-0.083657116,-0.8509202
26.34528418,5.244379044,-1.547675133,-0.824842215
26.36115332,6.654294014,-2.423328161,0.077029526
26.37693091,5.109007835,-2.33962512,0.09100759
26.39283057,1.577308655,-1.918477297,-0.869349003
26.40863843,-0.411536217,-1.418853998,-1.298285007
26.42447729,-2.598221779,-1.235719442,-1.569231749
26.44031592,-2.987005234,-1.341292262,-1.692948341
26.45612402,-2.164874077,-1.510764599,-1.320134401
26.47202344,-0.795419693,-1.80346489,-0.68006593
26.48783179,0.01940155,-1.671227694,0.019726336
26.50373145,-0.475542068,-1.146035075,0.00346154
26.51960034,-2.065091133,-0.492257953,-0.26675719
26.53537817,-3.704800606,0.115299046,-0.54628396
26.55127783,-4.960009575,0.523369312,-0.17608124
26.56708594,-5.223345757,0.526092589,0.171990275
26.5828938,-4.723731518,0.568303049,-0.24842906
26.59870215,-5.235776424,0.573459268,-1.002278209
26.61454053,-5.8615942,0.685807228,-1.8013587
26.63047095,-4.962878704,0.488474578,-1.484088778
26.64634009,-2.128808975,0.469229341,-0.899948955
26.66211768,-1.562636375,0.922269464,-0.896080732
26.67801733,-1.595880508,1.527475357,-1.767151594
26.6937644,-1.053003311,1.976569653,-2.41648531
26.70966406,0.731589317,2.148769617,-2.669928312
26.72547192,2.523159027,2.322857857,-2.482467175
26.74131079,3.597474098,2.136939526,-1.678408623
26.75717993,4.447893143,1.609861851,-0.673865497
26.77298779,4.863586426,1.151944518,-0.156940937
26.78891797,5.373411179,0.777343869,0.177833557
26.80478711,6.486737251,0.976049244,0.651366472
26.8205647,5.196177483,1.35782373,0.894670486
26.83646436,3.050107002,1.484433174,1.343472958
26.85227271,3.006295204,0.433148563,1.47793138
26.86817236,4.624361992,-0.995676279,1.343382716
26.88398022,5.110338211,-2.256515503,1.50112474
26.89978857,3.959485054,-2.682097912,1.161903024
26.91565771,2.260622025,-2.573652506,0.996176958
26.9314353,1.160300255,-2.310339928,0.929469228
26.94733496,-0.269377708,-1.686902046,0.839562893
26.96317334,-1.423913002,-1.060886502,0.349549294
26.97901221,-2.144879818,-0.661435068,0.483438969
26.99485083,-2.370775223,-0.766509712,0.461376309
27.01065894,-1.532865524,-0.908516645,0.347158551
27.02658887,-1.752225876,-0.67412281,-0.272566199
27.0423667,-2.643015385,-0.225007296,-1.080882788
27.0582356,-3.37877512,0.236131817,-1.721844912
27.07410474,-4.587311268,0.339709729,-2.298203945
27.08991309,-5.42744875,0.244867563,-2.227440596
27.10578198,-5.548032761,0.173975587,-1.803497553
27.12155981,-5.196590424,0.095914513,-1.499618649
27.13736792,-4.788290977,0.260338873,-1.395688772
27.15323706,-5.021145344,0.576027632,-1.40995729
27.16904492,-4.190034389,0.806896091,-1.39038384
27.18494458,-2.670940399,0.754808664,-0.960061312
27.20078345,-0.912658691,0.836923718,-0.568167686
27.21659131,-0.292361259,1.162787676,-0.303909183
27.23249097,0.749308586,1.402502537,0.06583941
27.2482688,2.190743446,1.577876568,0.593543053
27.26419897,2.953867912,1.577171326,0.418538809
27.28000684,3.469270706,1.932601929,0.595491409
27.29587598,4.132024765,1.964699388,0.482486844
27.31174536,4.534673691,1.10027957,0.561789989
27.32752271,6.299225807,0.427764237,0.989261687
27.34339209,6.519122124,0.396493137,0.939091802
27.35935254,5.067181587,0.153397322,-0.076444864
27.37516089,3.908611298,0.127387464,-0.686582685
27.39106055,4.444834709,-1.49121213,-0.475088865
27.40689893,5.618216515,-3.18005228,-0.014429629
27.42282935,4.703846931,-3.672607183,-0.218367398
27.43869849,2.131445885,-3.243548155,-1.033333659
27.45447607,0.116902351,-2.811155796,-1.803642392
27.47037573,-1.070583344,-2.358700752,-1.937634468
27.48621411,-1.868876457,-2.093651295,-1.698987961
27.50211377,-2.510875225,-1.999528885,-1.410541296
27.51795239,-2.540403843,-1.754465818,-1.141590238
27.53372998,-2.540957451,-1.424344659,-0.810627103
27.54962964,-2.138599396,-0.840594053,-0.321365297
27.5655293,-2.428384304,-0.242894694,-0.329241633
27.58136816,-3.376607895,0.377140075,-0.256242275
27.5972373,-4.090993404,0.83493948,-0.207360268
27.61301489,-4.67088604,0.902463078,-0.305027306
27.62891455,-5.410571575,0.61128211,-0.409183264
27.64472241,-5.150808811,0.456613481,-0.264384151
27.66059155,-4.776275635,0.232192591,-0.350009322
27.67636914,-4.257130146,0.647141457,-0.578168273
27.69217749,-3.480466366,0.763343692,-0.898324192
27.70804663,-2.05309391,0.602073312,-1.402023792
27.72385449,0.792901039,0.243648946,-1.474218011
27.73966284,1.974076271,0.492900789,-1.41964972
27.75550122,1.471019745,1.094275951,-1.925666809
27.77130957,1.361865997,1.57437706,-1.496848226
27.78714795,2.487847328,1.450656414,-0.646217465
27.8029563,3.106957436,1.040576696,-0.307101965
27.81888647,3.855940819,0.618131816,-0.27712357
27.83469434,4.425283432,0.21635735,0.063394904
27.85050269,5.450848579,0.041530371,0.444835782
27.86637183,4.710181236,0.188890576,0.663188696
27.88227148,3.764763832,0.684633732,0.820233941
27.89820166,3.071651459,0.30111444,0.678453445
27.9140708,3.632258415,-1.21804142,0.569386005
27.92990918,4.602639198,-2.839678526,0.736252189
27.94577832,3.671170235,-3.094679356,1.050729752
27.96155591,1.441553116,-2.554088831,0.946326017
27.97742505,0.006858826,-2.171897888,0.983705044
27.9932334,-1.096338272,-1.752737641,0.882711291
28.0090415,-1.46441555,-1.505122066,0.496974349
28.02491064,-1.63924408,-1.468862534,-0.138533592
28.04068823,-1.124297142,-1.550801158,-0.471971869
28.05664868,-0.332566261,-1.402257919,-0.376897871
28.07242651,-0.755364418,-0.865730643,-0.652097404
28.08823438,-2.039336681,-0.113950983,-1.301683426
28.10410376,-3.436707973,0.293913245,-1.407588601
28.1198811,-3.478050232,0.260243624,-1.339712977
28.13571997,-2.510636806,0.129738867,-0.998438597
28.15155835,-2.753427505,0.022272557,-1.205097914
28.16733618,-3.779344559,0.249278128,-1.498195887
28.18320508,-4.28508091,0.57081008,-1.317896247
28.19901343,-4.495319366,0.89683646,-1.372800469
28.21485181,-4.67700386,1.262720227,-1.11105299
28.23069067,-2.972374916,1.27817595,-0.307449937
28.24649854,-1.631032944,1.398542643,0.219841838
28.26239819,-0.571111679,1.649890184,0.437813938
28.27823682,0.719860077,1.41894567,0.863489091
28.29413647,1.785619736,1.29108727,1.32299614
28.30991406,2.596329689,0.760623753,1.236536384
28.32575293,2.764827728,0.88930738,0.798494339
28.34159155,2.846147537,0.907171726,0.591842175
28.35742993,3.520199776,0.603756785,0.506789565
28.37336011,5.133520126,0.256281257,0.436724186
28.38919873,5.112407684,0.230065107,0.285062373
28.4050376,4.310466766,0.39232707,-0.900968015
28.42087598,3.093608856,-0.00620544,-1.413350105
28.43665381,4.486822128,-1.392738938,-1.300902009
28.45255347,5.998456955,-2.83838129,-0.460728943
28.46839185,5.509551048,-3.518340588,-0.213348031
28.48416943,2.692076683,-3.193483353,-0.744630456
28.50006909,-0.707790375,-2.517823219,-1.165797234
28.51590796,-2.728975773,-2.150762081,-1.645541191
28.53180737,-3.030909538,-1.841131687,-1.501472712
28.54764624,-2.422056198,-1.84973073,-1.425798535
28.56348462,-1.570512772,-2.001510382,-1.01927352
28.57935376,-0.286420822,-2.205617428,-0.729643345
28.59519263,0.84009552,-1.935872555,0.183887959
28.61109229,0.39470005,-1.141363978,0.585236669
28.62686987,-1.278390884,-0.274306953,0.077356339
28.64273901,-2.367054939,0.336336672,-0.29353106
28.65863867,-3.364760876,0.533393502,-0.767549276
28.67438574,-3.4896698,0.241771758,-1.195260763
28.6902854,-3.354131222,-0.076682031,-1.048071623
28.70612402,-3.857131958,0.152147353,-1.34465611
28.7219624,-4.40626812,0.341351688,-2.093182802
28.73780127,-4.520421505,0.580058038,-2.091886997
28.75363965,-4.255383492,1.076220632,-1.8724612
28.76957007,-3.385485172,0.990615845,-1.861337304
28.78537793,-1.265440941,0.714985013,-2.12954092
28.80115552,1.084709167,0.212195635,-1.764570355
28.81705518,2.112498283,0.294603348,-1.306965232
28.83286353,1.831473351,0.881380677,-1.185985446
28.84873267,1.248370171,1.20615983,-1.211110592
28.86457104,2.205569267,0.722546697,-1.01709938
28.88040991,3.821464539,-0.062313199,-0.768877625
28.89627905,5.62091732,-0.331469655,-0.011463642
28.91205664,5.021512985,0.149365067,0.333849072
28.92783423,3.506507874,0.750680327,0.48276782
28.94364209,2.446624756,0.324371696,0.615169168
28.95945044,3.115792274,-0.957070231,0.933067083
28.97531958,4.725613594,-2.646377087,1.377873659
28.99112744,4.733293533,-3.310117722,1.609686494
29.0070271,2.731305122,-3.149538279,1.233310342
29.02289648,0.649786949,-2.673463345,0.586259604
29.03867383,-1.250123978,-2.127424717,0.368353009
29.05457349,-2.469829082,-1.805778623,-0.009622931
29.07038184,-3.400808811,-1.799612045,-0.284309387
29.08615942,-1.240067482,-2.126467228,-0.129669666
29.10196729,0.955836296,-2.486173868,0.24985373
29.11780615,0.976937294,-2.002065182,0.363495827
29.13367529,-0.269683838,-1.287245989,0.083541751
29.14951367,-1.073223114,-0.383352906,-0.174392939
29.16550513,-1.573292732,0.125492468,-0.516031742
29.18134375,-2.188632488,0.176364496,-0.590141892
29.19721265,-2.723612785,0.167573512,-0.644930243
29.21295972,-2.987380981,-0.075251564,-0.830011129
29.22879858,-3.59512043,-0.156146854,-1.012609363
29.24472852,-3.665133953,0.065522425,-1.048398495
29.26053687,-4.345204353,0.324967861,-1.027184963
29.27637524,-4.308521271,0.607062459,-0.868823647
29.29224438,-3.114974499,0.612489104,-0.666165888
29.30805273,-1.084701538,0.239302695,-0.335526347
29.32389111,1.522187233,0.225898266,0.076624036
29.33972998,1.798275948,0.699510217,0.399410486
29.35572095,1.596536636,1.422494411,0.53808558
29.37162085,1.971076012,1.621244431,0.546647072
29.38745923,2.743566513,1.411224842,0.471654534
29.40335889,4.002225876,0.684615135,0.202525139
29.41919775,5.324050903,0.154023647,0.288345575
29.43506689,6.356329918,0.15017271,0.522090375
29.45093579,5.371253014,0.30357796,-0.042410314
29.46674414,3.458135605,0.333858907,-0.88677001
29.48258276,2.51084137,-0.375273287,-1.265434742
29.49845166,3.638353348,-1.849631548,-1.066683054
29.51429053,4.204400063,-3.396537304,-1.197008014
29.53019019,3.544325829,-3.929689407,-1.170032978
29.54599805,1.688673973,-3.577043056,-1.501420736
29.56177588,-0.334779739,-2.968572617,-2.262101173
29.57752295,-2.791589737,-2.228694916,-2.399015427
29.59351392,-3.953032017,-2.083821535,-2.234486341
29.60941357,-3.749353409,-2.175046206,-1.738671541
29.62522192,-3.121166706,-2.313878059,-1.153032184
29.64112158,-0.169137001,-2.528450012,-0.083740711
29.65692944,0.540963173,-2.086196661,0.403838754
29.67279883,-1.235443115,-0.946084619,-0.128978014
29.68866797,-2.997495174,-0.019120336,-0.477863133
29.70453711,-3.851237774,0.43915385,-0.696236968
29.72046729,-4.148007393,0.31466651,-0.831523955
29.73633643,-3.461716652,0.1273669,-0.679643512
29.7521748,-3.511025906,0.139110684,-0.649544537
29.76810522,-3.790716171,0.371301174,-0.753057837
29.78391333,-3.946102619,0.643347919,-1.026538849
29.79975195,-3.723381519,0.799588561,-1.239696264
29.81555981,-3.678119183,1.086645007,-1.543069363
29.83139868,-3.101122379,1.067139626,-2.028123379
29.84723706,-1.547034264,0.731774807,-2.348721027
29.86304541,0.858125687,0.550028741,-1.379384398
29.87900586,3.36339283,0.509449482,-0.690411448
29.89484473,2.984150887,0.701849818,-0.476868272
29.91071387,2.909620285,0.928753853,-0.704745173
29.92658276,2.106912613,0.256162822,-0.66617918
29.94242139,4.138319016,-0.5068295,-0.151376128
29.95832104,6.554320335,-0.70271349,1.031051755
29.97409863,6.864590645,-0.332819611,1.756138325
29.9899375,4.965111732,-0.026581764,2.181180954
30.00580664,4.004450798,-0.923569441,1.933064461
30.0216145,4.820861816,-2.307749033,2.154872894
30.03745337,5.735284805,-3.73983407,2.506921768
30.05326123,4.38654232,-4.11388731,2.141541004
30.0691001,1.644655228,-3.698982239,1.426034451
30.08493848,-0.486856461,-3.087700367,0.874442577
30.1007771,-2.366821766,-2.251291275,0.322773457
30.11667676,-3.420862675,-1.606203318,0.052001834
30.13248511,-3.004086971,-1.315828204,-0.13630724
30.14832349,-2.149742126,-1.432742834,-0.487176418
30.16413184,-1.245126724,-1.562495589,-0.62300396
30.17990942,-0.155947685,-1.562875509,-0.460201859
30.19577856,0.495974541,-1.603822708,-0.287907124
30.21158667,0.107494354,-1.25711,-0.550095677
30.22745581,-0.587879181,-0.916478813,-0.691314101
30.24329419,-1.403972626,-0.585474432,-0.950452328
30.25907202,-1.812571049,-0.31569165,-1.141159058
30.2749104,-2.417489052,-0.055087317,-1.295770884
30.29068799,-3.290034294,0.166604161,-0.964742899
30.30655713,-3.579590321,0.137080237,-0.345372915
30.322396,-3.719387531,0.049944773,-0.690962434
30.33832593,-4.215836048,0.406851023,-1.741334796
30.35419531,-4.299871445,0.508506596,-1.62091589
30.37003394,-2.49008894,0.61506772,-1.41795671
30.38587231,-1.589044571,0.628644228,-0.690696001
30.40174146,0.023383141,0.374792635,-0.137666225
30.4175498,1.822944641,0.286601424,0.39359653
30.43338818,2.131177902,0.477020264,0.272548199
30.44919653,2.212023735,0.688232005,0.366312742
30.46503491,2.12929821,0.876344323,0.367526829
30.48087378,1.930838585,0.64007163,0.249851167
30.49665137,2.482502937,0.285493255,0.626371145
30.51252051,3.333949089,-0.035677433,1.373689175
30.52832837,3.276297569,-0.088418841,0.803190529
30.54419775,3.075580597,-0.139712214,-0.427018583
30.56006689,3.434672356,-0.95337075,-1.41831243
30.57587476,5.794796944,-2.971817017,-1.323578835
30.59170386,6.956181526,-4.110138416,-0.566841364
30.607573,4.513437271,-3.918614388,-0.909645796
30.62335059,0.8450737,-3.127499342,-1.697882414
30.63925024,-0.995462418,-2.504681587,-1.990407228
30.65502808,-1.75464344,-2.31325388,-1.498786688
30.67095801,-2.107174873,-2.132755756,-1.688114405
30.68676611,-1.835192204,-1.907681942,-1.713551998
30.70254395,-1.301487923,-1.824935436,-1.783438802
30.7184436,-0.794361115,-1.607218742,-1.566925287
30.73428198,-0.546782494,-1.385487556,-0.916694999
30.75021216,-0.39931488,-1.156531692,-0.256927073
30.76598999,-0.52686882,-0.84112376,-0.072914124
30.78185889,-0.918311119,-0.607008338,0.072193086
30.79772803,-1.657416344,-0.374497294,-0.07725209
30.81350586,-2.319996357,-0.27798143,-0.33945334
30.82940552,-2.903537273,-0.138731718,-0.355467379
30.8452439,-3.451147079,-0.004969716,-0.555106759
30.86102148,-4.112251759,0.194125652,-0.640760005
30.8769519,-3.786929607,0.260619521,-0.733397126
30.89275977,-3.444170952,0.317541063,-0.849160194
30.90865942,-2.946131229,0.34407407,-1.123245358
30.92452856,-2.704534054,0.523543656,-1.419460058
30.94036743,-2.115861416,0.669557452,-1.459751248
30.95626709,-1.098267555,0.725167513,-1.469104528
30.97204443,-0.384290695,0.640623689,-1.513945699
30.98797461,1.040094376,0.446585059,-1.355057001
31.00378271,1.763934135,0.440781951,-1.365751028
31.01959082,2.12101841,0.511100173,-1.136388302
31.03549048,2.405079842,0.415986776,-0.559039414
31.05132935,3.059318542,0.100007176,-0.351554036
31.067229,4.221915245,-0.503225148,-0.033941269
31.08300635,5.066212654,-0.848565102,0.602684855
31.09887573,4.738717079,-0.559696019,1.687332273
31.11465308,3.420004845,0.051087379,0.882251024
31.1304917,1.222102165,0.586585283,0.010139108
31.14636084,0.660108566,0.403752208,-0.337412238
31.16219946,1.61843586,-0.377006531,-0.248689651
31.17803809,3.626412392,-1.915216923,0.248077035
31.19393799,4.344278336,-3.019767523,0.537624836
31.20974585,3.235164642,-2.99245882,0.275974512
31.22561499,1.72514534,-2.412830114,-0.026312232
31.24145361,-0.059055328,-1.735277653,-0.578263283
31.25732275,-1.036643028,-1.253185868,-0.712817192
31.27316138,-2.161094189,-1.173922658,-0.697823882
31.28896948,-2.402075291,-1.352544785,-0.413914442
31.30483862,-1.0659132,-2.063177109,-0.075301766
31.32070776,-0.290450096,-2.233231068,-0.137443662
31.3365769,-0.003595352,-2.010287046,-0.209781289
31.35247656,-0.062646866,-1.467393637,-0.331345201
31.36831519,-0.623624802,-0.816666484,-0.485012174
31.38421484,-1.299383163,-0.436965287,-0.572833061
31.40002295,-1.487722397,-0.348723173,-0.458650827
31.41580054,-2.042128563,-0.288412035,-0.461691976
31.4317002,-2.775846958,-0.282361269,0.004804611
31.44750854,-2.609259605,-0.272900581,-0.239982128
31.46337744,-2.52692318,-0.315736055,-0.172371268
31.47921606,-3.140411854,-0.022767663,-0.119639397
31.49505493,-2.941634655,0.211413383,-0.718652546
31.51095459,-2.301826,0.393157601,-0.972457349
31.52673193,-1.86861515,0.082377911,-0.108479142
31.54266211,-1.2087183,0.182088375,0.238913178
31.5584397,-1.14283371,0.454694986,0.085585415
31.57424805,-1.040529251,0.822567225,0.449952722
31.59014771,-0.705651283,1.269035935,0.683366239
31.60601685,-0.158971786,1.438696146,0.778900564
31.62185522,0.574493408,1.1932019,0.759417176
31.63769385,1.397459984,0.550437689,0.450828552
31.65353247,1.454595566,0.443412304,0.143611073
31.66946289,1.845373154,0.192279696,0.050798178
31.68524023,2.707410812,-0.171856403,0.030934334
31.70120093,4.110599518,-0.605578661,0.259808004
31.71703955,4.30063343,-0.406517744,0.243884981
31.73281714,2.638015747,0.03823328,-0.267596364
31.7487168,1.225616455,0.586537242,-1.044650912
31.76455542,1.024435043,0.545333505,-1.412072182
31.7804248,3.117715836,-0.530334592,-1.471360326
31.79626318,5.372689247,-1.774491668,-1.680481672
31.81204077,6.074681282,-3.854910851,-0.513487041
31.82794067,5.386183739,-4.58494854,0.409933925
31.84374854,2.76266861,-3.660607815,-1.696886539
31.85952612,-0.109733582,-3.121752739,-2.237021685
31.87533447,-1.585540771,-2.965892792,-2.492001534
31.89120337,-2.731419086,-2.886988401,-2.425507069
31.90713379,-2.438576698,-2.688395739,-2.115419388
31.92291113,-1.827119827,-2.643989086,-1.230965853
31.93884131,-1.18735218,-2.759501219,-0.593010783
31.9546189,-0.725939751,-2.635385513,-0.259105504
31.97042725,-0.17346859,-2.279697895,-0.127492011
31.98626563,-0.030787468,-1.734241962,-0.219374478
32.00204346,-0.455616951,-1.120348215,-0.383187652
32.01797339,-1.147159576,-0.722476959,-0.512311935
32.03378149,-1.709317207,-0.622050166,-0.546365142
32.04962012,-1.915165901,-0.731521904,-0.771318614
32.06551978,-2.368040562,-0.828785121,-0.382419705
32.08129736,-2.798039913,-0.732399285,-0.4723351
32.0971665,-3.248147964,-0.541306257,-0.877987981
32.11300513,-3.615584373,-0.275046706,-0.824903429
32.12884375,-3.290146351,-0.285808921,-0.87022841
32.14471289,-2.115350246,-0.374696374,-1.150758266
32.160521,-1.379658699,-0.665261269,-1.426780105
32.17639014,-0.705836296,-0.821660399,-1.681885242
32.19216772,0.097131729,-1.112783074,-2.520270348
32.20797583,0.781751633,-0.879509032,-2.460571766
32.22384521,1.09244442,-0.541983008,-2.368862152
32.23962256,1.557228088,-0.146307588,-2.063052416
32.25555273,1.539229393,0.179016352,-2.114309788
32.27136084,1.36030674,0.405009747,-2.074661016
32.28722998,0.995345116,0.322221041,-2.278967857
32.3030686,1.42041111,0.042551756,-2.327356577
32.31887671,2.466090202,-0.332761049,-1.910716057
32.3348374,3.316305161,-0.200085759,-1.121701241
32.35061499,2.256749153,0.330986977,-0.820988894
32.36648413,1.008406639,0.716302395,-1.04232502
32.38232275,0.721311569,0.211762428,-0.989413977
32.39813086,2.056604385,-0.918432713,-0.594974816
32.41409155,4.171133995,-2.153331995,-0.674516976
32.42986938,4.75664711,-3.504631042,-0.267805338
32.44573828,4.335327148,-4.078386307,0.740465403
32.46176001,3.235198021,-3.84667778,0.787222981
32.47759863,1.913117409,-2.952951908,0.323679566
32.49337622,-0.115273476,-2.431906939,-0.03103888
32.50921509,-1.28014946,-2.055521965,-0.084174633
32.52502295,-1.360539436,-2.063552856,0.01315546
32.54089209,-1.304842949,-2.235827684,0.153392196
32.5567002,-0.366435051,-2.576946259,0.288991213
32.57253882,0.300465584,-2.795130491,0.159119725
32.58843848,0.553627968,-2.572944641,-0.07559526
32.60430762,0.41775322,-2.015827894,-0.350430608
32.620177,0.038771629,-1.510350347,-0.677733839
32.63595435,-0.561008453,-1.000802875,-0.967797041
32.65179297,-1.288975716,-0.742096305,-1.156720757
32.66769287,-2.015153885,-0.914771676,-0.848953784
32.68350073,-2.237425804,-0.704822302,-1.343238354
32.69940039,-2.50945282,-0.666153669,-1.379520893
32.7152085,-2.649818897,-0.666395426,-1.12417531
32.73116919,-2.687792778,-0.331587136,-1.229700327
32.74700781,-2.61247015,-0.003354311,-1.248997808
32.76278564,-2.754569054,0.047684789,-0.782541335
32.7786853,-2.425473213,0.208817601,-0.486327708
32.79449316,-2.052272797,0.475010872,-0.480485797
32.81042334,-1.96118021,0.784146428,-0.201031864
32.82623145,-1.612293243,0.723108292,-0.103587091
32.84203955,-0.578958511,0.248031378,-0.262573242
32.85796973,1.02264595,0.052946568,-0.580042601
32.87380835,1.370791435,-0.094303608,-0.623641253
32.88964722,2.258432388,0.05222702,-0.155009359
32.90545508,2.506469727,0.328135133,-0.690029621
32.92132422,2.32781601,0.493365884,-0.822068095
32.93728491,2.567040443,0.36250782,-0.875044227
32.95321533,3.075094223,0.192275047,-0.523149967
32.96917578,3.057137489,0.222500682,-0.181283444
32.98510596,2.390209198,0.379403353,-0.360254675
33.00100562,2.002510071,0.386595607,-0.772954702
33.01690527,1.873166084,0.142192006,-1.282116652
33.03277441,2.563469887,-0.428129315,-1.582929373
33.04873535,3.523640633,-1.347708583,-1.568835258
33.06460449,3.99411869,-2.315659523,-1.309842706
33.08047339,3.658380508,-2.977311611,-0.825199187
33.09634253,2.338075638,-2.972959042,-0.664139628
33.11218115,0.53383255,-2.810783148,-0.963420153
33.12817261,-0.909697533,-2.630373955,-1.426800847
33.14401099,-1.60384655,-2.433388948,-1.745886326
33.15984961,-1.794267654,-2.18442893,-1.705556393
33.17571899,-1.81572628,-1.844696999,-1.492967129
33.19146606,-1.746336937,-1.789398551,-1.343733549
33.207396,-1.227087021,-1.928503156,-1.14204216
33.22326538,-0.482637405,-1.913892508,-0.890946865
33.23904272,-0.169259071,-1.746430635,-0.837704659
33.25500342,-0.391497612,-1.36196959,-0.967930257
33.27087256,-1.299623489,-0.93594265,-1.149028659
33.28671118,-1.908426762,-0.540779233,-1.147816181
33.30258057,-2.024999619,-0.492301345,-1.103105903
33.3185105,-2.275328159,-0.431402922,-1.085057497
33.33441016,-2.803958416,-0.207338095,-1.187511206
33.35024902,-2.911236763,-0.048916221,-1.223705292
33.3660874,-2.958812237,0.008893847,-1.042345285
33.38189575,-2.656995296,0.089506626,-1.202813745
33.39773413,-2.249109745,0.232624888,-1.110875964
33.41366431,-1.795512199,0.357677579,-1.163296342
33.42944214,-1.455560684,0.455655813,-1.311695337
33.44525,-1.028032303,0.642236948,-1.442322373
33.46108887,-0.198200226,0.470704198,-1.442510843
33.47686621,0.634555817,0.31329751,-1.494605303
33.49270483,1.377782822,0.210448861,-0.994485855
33.50848267,1.630866051,0.281128287,-0.278805345
33.52435181,1.842494011,0.394704819,0.127555236
33.54015967,1.978467941,0.404892802,0.191937909
33.55599854,2.301990509,0.243894696,0.185561538
33.57186743,3.20111084,-0.175639987,0.204614073
33.58767554,3.836098671,-0.188849092,0.377061754
33.60345313,2.950489998,0.209201336,0.527713597
33.6193833,2.049038887,0.567401052,0.93054086
33.63522192,1.512003899,0.41082561,1.346781254
33.65109131,1.167080879,-0.187049747,1.448633194
33.66686865,1.795051575,-1.298462272,1.450370073
33.68273804,3.236004829,-2.631492376,1.56937623
33.6985459,3.592021942,-3.408943892,1.812519193
33.71438452,2.591263771,-3.424203157,2.072662115
33.7303147,1.422073364,-3.112317085,2.020465374
33.74609229,-0.553111076,-2.534904003,1.603038549
33.76202246,-1.543424606,-2.112679243,1.541200399
33.7778916,-2.007579803,-1.883226395,1.500947237
33.79376074,-1.911227703,-1.812487602,1.346440792
33.8096604,-1.301939964,-1.914845943,1.154456854
33.82546875,-0.274968147,-2.08260417,1.056419969
33.84133765,0.496099472,-2.034507275,1.151738048
33.85717627,0.446224213,-1.580331326,1.077243686
33.87298438,-0.154302597,-1.137960196,0.809601665
33.88885352,-0.81689167,-0.766830385,0.506285727
33.90469214,-1.427949905,-0.305549502,0.066445947
33.92056152,-2.00394249,-0.178617299,-0.165944606
33.93633887,-2.300795078,-0.175519049,-0.192066282
33.95217773,-2.633286476,-0.215240002,-0.10398218
33.96807739,-2.707323074,0.043136239,-0.169578642
33.98391577,-2.915196896,0.183782339,-0.299887657
33.99987671,-2.756897449,0.329867005,-0.242791682
34.01574561,-2.79984045,0.363779962,-0.285274446
34.03152344,-2.424492359,0.441211045,-0.159575582
34.0474231,-1.808226585,0.430476427,-0.077290803
34.06320044,-0.923793793,0.393144727,0.29796207
34.07906958,-0.387951851,0.422435224,0.424114704
34.09481665,-0.020394325,0.556129217,0.439848214
34.11059424,0.084666252,0.561999202,0.361027539
34.12643311,0.511453629,0.508385777,0.153187901
34.14221045,0.979596138,0.42319715,-0.073220834
34.15817114,2.008259773,0.280591607,-0.11177253
34.17397949,2.999428749,0.089717507,-0.142508671
34.18981787,3.495832443,0.021305203,-0.04117164
34.20568701,3.935322762,0.327145457,0.408266127
34.22152588,3.413082123,0.800030589,0.459608018
34.23739502,2.367508888,1.120013237,0.10355401
34.2532334,2.241306305,0.888571501,-0.132419497
34.26901099,3.294285774,-0.063175082,0.008998422
34.28491064,4.961743355,-1.63165164,0.328406513
34.30071875,5.959168434,-3.257574558,0.660712421
34.31658813,4.741916656,-3.913109303,0.460534662
34.332396,2.173509598,-3.869100094,-0.376628876
34.34832617,-0.326543808,-3.486785412,-1.392957568
34.36422583,-1.880232811,-2.910364628,-1.700333357
34.38006445,-2.133050442,-2.707555532,-2.247132063
34.39605591,-1.958249569,-2.579186916,-1.856917262
34.41186377,-2.096356392,-2.406239986,-1.542575121
34.42770264,-1.822550774,-2.125575066,-0.916026592
34.44357178,-0.944256783,-2.019788027,-0.21317324
34.45941016,0.030433655,-1.652524233,0.388618052
34.47521851,-0.112858772,-1.210663557,0.539799929
34.49099585,-0.78153038,-0.65846318,0.307883203
34.50683447,-1.376840591,-0.391293764,-0.056001037
34.52270361,-2.045734882,-0.286323547,-0.238199919
34.53851196,-2.602407455,-0.295235872,-0.210827559
34.55435034,-2.872603416,-0.337685943,-0.332027137
34.57015869,-3.302074432,-0.236749172,-0.487392783
34.58599707,-3.563687325,-0.193203568,-0.580018163
34.60186621,-3.737319946,-0.086853862,-0.868987799
34.61773535,-3.256521702,0.150700927,-1.320155144
34.63357422,-3.218118191,0.498935699,-1.707687378
34.64938208,-2.140922546,0.44115901,-2.319283485
34.66519019,-0.953273773,0.120408893,-2.330500126
34.68105933,0.487464905,-0.382412672,-1.717757583
34.69686768,1.826330185,-1.03509295,0.374594688
34.71279761,2.257646561,-0.644896865,0.631566644
34.72866699,2.132335663,-0.155054808,-0.084792137
34.74450537,1.285452843,0.770080566,-0.767770708
34.76037451,1.052681923,1.057309866,-1.087035179
34.7761521,1.246780396,0.622399092,-0.998679638
34.79211279,2.419624329,0.124048471,-0.563373685
34.80798218,4.210970879,-0.361917496,0.154930472
34.82382056,4.9763937,0.086176634,0.57918632
34.83975098,2.406711578,1.129912734,0.552241683
34.85552856,1.366461754,1.322822928,0.714028478
34.8714585,2.323679924,1.422012329,0.190575242
34.88732764,2.039402962,0.407581925,0.595188141
34.90316626,3.03266716,-0.655440807,0.88040781
34.91906592,3.083638191,-2.155874252,1.350601196
34.93484375,2.131156921,-2.885614157,1.908217549
34.95071265,1.379920006,-2.830841541,1.528245687
34.96661255,-0.334535599,-2.543470144,0.855791092
34.98245093,-1.411499977,-2.241504669,0.551425219
34.99832007,-2.140693188,-2.309279203,0.436052084
35.01412817,-2.541241646,-2.214010239,0.092900157
35.0299668,-2.432685375,-2.196660519,0.033816457
35.0457749,-1.78632021,-2.219074488,-0.255781412
35.06164404,-0.546232224,-2.177094221,-0.158454418
35.0775437,0.678913116,-1.961051702,0.087591887
35.09338232,0.824056625,-1.449699283,0.040652275
35.10925146,0.370770454,-0.998007476,-0.274559498
35.12509009,-0.448742867,-0.681788146,-0.608496666
35.14086792,-0.744517326,-0.647978365,-0.713415682
35.15673682,-0.894460678,-0.580154181,-0.8697927
35.17260596,-1.605773926,-0.240962565,-0.636526644
35.18850562,-2.326034546,-0.064901114,-0.960653365
35.20434424,-2.759530544,0.031905055,-1.286357999
35.22018311,-2.702685833,0.05993402,-1.23517561
35.23602148,-2.408978462,0.063556075,-1.125516891
35.25179907,-2.352337837,0.212071776,-0.92754215
35.26769873,-1.836310863,0.153129339,-0.801573098
35.28353735,-1.665041924,0.144162059,-0.949243426
35.29931494,-1.247788429,0.188862324,-0.880299926
35.3152146,-0.564659119,0.24103868,-0.428102076
35.33108374,0.116441727,0.259946108,0.083985686
35.34695288,0.778408051,0.405819654,0.477118134
35.36282227,1.006916046,0.490423799,0.844205618
35.37869141,1.54317379,0.653067708,1.095225453
35.39449927,1.79384613,0.776878238,1.140162945
35.41033813,2.138224602,0.251589537,1.002775431
35.42626807,2.828800201,-0.159454346,1.151869059
35.44210669,3.275978088,0.043668032,1.353820801
35.45788452,3.425028801,0.621084094,0.911971509
35.47375366,2.342465401,0.914834619,0.455288053
35.48953125,1.198566437,0.930174232,-0.137027442
35.50546118,1.290045738,0.193871617,-0.732341766
35.52123877,3.005570412,-1.270008564,-0.796343684
35.53710791,5.070711136,-2.722171545,-0.213273942
35.55297705,5.932743073,-3.591590405,0.304175138
35.56875464,3.871848106,-3.2849617,-0.280774623
35.58468481,1.010653496,-2.58419323,-0.886222601
35.60052344,-1.253525734,-2.20678544,-1.455227137
35.6163623,-2.097137451,-2.033516884,-1.748515606
35.63221899,-1.350691795,-2.143353462,-1.992019176
35.64802686,-0.844205856,-2.162911177,-1.928397417
35.66395703,-0.24318409,-2.11157608,-1.734826088
35.67976514,-0.288348198,-2.118079901,-1.260332704
35.69563452,0.196629524,-1.991826534,-0.750945449
35.71150366,0.344034195,-1.825677276,-0.130494535
35.72725073,-0.046697617,-1.454909325,0.099659801
35.74318091,-1.288882256,-1.007779837,-0.040149271
35.75898877,-2.63765192,-0.619786918,-0.187075019
35.77476636,-2.962985992,-0.308072507,-0.259882808
35.79060498,-2.974892616,-0.227019906,-0.19846791
35.80638257,-3.082561016,-0.059160352,-0.34999299
35.82231274,-3.156461239,0.131020308,-0.46048373
35.83812085,-2.904543877,0.283917308,-0.54633981
35.85395947,-2.662905693,0.342573285,-0.718874514
35.86982861,-1.917544842,0.329099298,-0.800189495
35.88560645,-1.24301815,0.239158869,-0.918439388
35.90147534,-0.798280716,0.17369163,-1.042901635
35.91731396,-0.883180618,0.236858249,-1.281353712
35.93315283,-0.785212517,0.399208784,-1.433031082
35.94902173,-0.246707916,0.515578032,-1.286196113
35.96479956,0.228655815,0.69325614,-0.800857842
35.98076001,0.685186386,0.847617626,-0.51583004
35.99669019,0.877127647,0.983798265,-0.668334007
36.01249854,0.59668541,0.962120891,-0.791806221
36.02836768,1.34957695,0.792692184,-0.796928287
36.04423657,2.95775032,0.252417803,-0.165501595
36.06013623,4.512517929,0.013301849,0.441816211
36.07606665,4.441189766,0.459176064,0.743638277
36.09187451,2.803356171,1.159707189,0.784353733
36.10774365,1.421122551,1.421435952,0.767912865
36.12364331,1.215053558,0.947305083,0.913272262
36.13954297,2.161711693,-0.173415661,1.18132484
36.15532056,3.95376873,-1.67839551,1.554001689
36.17115918,4.184960365,-2.733594418,1.417724013
36.18702856,2.591220856,-2.669712543,1.18574214
36.20289771,0.236182213,-2.170166969,0.949440122
36.2187666,-1.265142441,-1.839320898,0.528898478
36.23460522,-2.548520088,-2.062547684,0.993886709
36.25041333,-0.815039635,-2.727917194,1.001466274
36.26625195,0.775556564,-3.22083807,1.621553302
36.28199902,0.84363842,-2.92942071,1.666347384
36.29786841,-0.898226738,-2.206402779,1.139444828
36.31367627,-1.407923698,-1.527065039,0.220177293
36.32945386,-0.040297508,-1.277930617,0.36019069
36.34526196,0.517343521,-0.979992509,0.460413277
36.36110059,-0.463686943,-0.628636539,0.159505665
36.37696973,-1.660348892,-0.303375006,-0.297630727
36.39274731,-2.459845543,-0.038064361,-0.454393804
36.40858594,-2.901508808,0.043296576,-0.738677204
36.42445508,-2.823468208,-0.038479567,-0.684779763
36.44032446,-2.184293747,-0.230456352,-0.479868084
36.45616284,-1.809442997,-0.281641424,-0.292461634
36.47203198,-1.982279778,-0.196221411,-0.432302982
36.48787061,-2.110388279,-0.214818537,-0.431298107
36.50370923,-2.069538593,-0.208096743,-0.352274895
36.51951733,-2.126358032,-0.242790699,-0.510675073
36.53544751,-2.236742496,-0.211252928,-0.484173834
36.5512251,-2.157622337,0.254924893,-0.85067153
36.56706372,-1.807710171,0.452641129,-1.276249886
36.58293311,-0.963793755,0.865675569,-1.391897559
36.59868018,0.275334358,1.239172459,-0.880048513
36.61461011,1.22252655,1.283697128,0.028069615
36.6305708,1.595799446,1.581237912,0.914598942
36.64643994,1.78813076,1.492645383,1.410035849
36.66237036,2.94333744,1.274188757,1.665086746
36.67830054,3.486727715,0.800872803,1.724543214
36.69413892,3.969463348,0.492050052,1.844338775
36.71003857,3.980979919,0.487668276,1.873960733
36.72590771,3.05459404,0.797305584,1.272134662
36.74183813,1.916020393,1.048503876,0.556936145
36.75761572,1.381586075,0.867009521,0.011878774
36.77342358,2.661168098,-0.141120315,-0.146661401
36.78929272,5.097937584,-1.969246745,-0.002596192
36.80516187,5.782666206,-3.429237366,0.178936005
36.82106152,3.920969009,-3.758714199,-0.220365971
36.83686963,1.122841835,-3.216677427,-0.807726681
36.85276929,-1.471879959,-2.638973236,-1.448814988
36.86854712,-2.952254772,-2.251983881,-1.883572102
36.88441602,-3.384577751,-2.124929667,-1.886483192
36.90025464,-2.555452824,-2.223470211,-1.43952322
36.91603223,-2.188958168,-2.032887936,-1.008954406
36.93193188,-1.470936775,-1.787354112,-0.544702232
36.94770947,-0.111320496,-1.688699126,0.059273586
36.9635481,0.741470337,-1.352730513,0.529706776
36.97941724,0.980890274,-0.96691221,0.729623199
36.99516431,0.521075249,-0.606172323,0.692654729
37.01106396,-0.127264023,-0.372639477,0.535766363
37.02690283,-0.902020454,-0.245868683,0.250940442
37.04268042,-1.879045963,-0.238938093,0.057491332
37.05845776,-2.434684277,-0.165392637,-0.021374971
37.07426587,-2.874532223,-0.034309745,-0.226680249
37.09010449,-3.377120495,0.009427547,-0.479396135
37.10594336,-3.208943844,0.021901608,-0.575051427
37.12175122,-2.956266403,-0.023260951,-0.767193198
37.13765088,-2.627845764,-0.003884435,-0.937136412
37.15345898,-2.051013947,0.010681391,-1.141913414
37.1693894,-1.397796631,0.067239642,-1.155158043
37.18516675,-0.911200523,0.133267164,-1.298556447
37.20103613,-0.54928875,0.358197927,-1.382290363
37.21690527,-0.362797737,0.426119447,-1.445492864
37.23268286,0.207583427,0.710741878,-1.470678449
37.24858252,0.598311424,0.778407216,-0.926125407
37.26451245,0.868135452,0.728963137,-0.322395921
37.28038159,1.235296249,0.78181529,0.018009413
37.29628125,1.296193123,0.591250896,0.135784656
37.31218091,1.969057083,0.25900507,0.350399345
37.32820264,3.186670303,-0.123333454,0.68844825
37.34410229,3.78217411,-0.240942836,0.7062608
37.35987988,3.511240959,0.448708773,0.820209146
37.37577954,2.340118408,1.063568592,0.910021842
37.39158789,1.768652916,1.267031431,1.348264217
37.40751807,1.699357033,0.623862267,1.85404706
37.42332593,2.879369736,-0.722124577,2.206726789
37.43919507,3.951176643,-2.069245577,1.95083189
37.45503394,4.037695885,-3.161005259,1.695197821
37.4708418,3.178079605,-3.380081177,1.540158987
37.48674146,1.424517632,-3.26743865,1.486353874
37.50251904,-0.570777893,-3.000111341,1.357060671
37.5184187,-1.343537331,-2.85971427,1.460810423
37.53428784,-1.687871456,-2.671737194,1.650244117
37.55009619,-1.86938715,-2.416044474,1.43369031
37.56602612,-1.595146656,-2.153475523,1.265654087
37.58180371,-0.689014435,-2.116883039,1.225639582
37.59761182,0.203763962,-1.984107137,1.320079327
37.61351147,0.453332901,-1.651723862,1.255781293
37.6293501,0.110203743,-1.250834227,1.09306407
37.64512769,-0.57393074,-0.902891099,0.698092043
37.66096631,-1.176833153,-0.764057457,0.481466532
37.67677441,-1.71336937,-0.656023979,0.293688715
37.69264355,-2.314441204,-0.617430449,0.208014309
37.70848242,-2.451030254,-0.532463431,0.225219488
37.72435156,-2.627297401,-0.523018003,0.288461417
37.74012891,-2.611457348,-0.477089286,0.509508014
37.75599829,-2.369636536,-0.442135811,0.637260675
37.77189795,-2.132847786,-0.455864906,0.750672817
37.78773633,-1.519442558,-0.332220078,0.987574935
37.80357495,-1.431330681,-0.226465106,0.967239738
37.81935254,-1.409124374,-0.01972878,1.055820704
37.83516089,-1.216480255,0.133480072,1.156778097
37.85099927,-1.178368568,0.281966209,1.305277467
37.86677686,-0.859017372,0.514437199,1.569861054
37.88270728,-0.610421181,0.791298747,1.608794093
37.89848462,-0.517981529,1.03900063,1.774573445
37.91432324,0.08140564,1.165000319,1.824713707
37.93025366,1.033812523,0.974887133,2.041925907
37.94615332,1.741922379,0.344857216,1.230571985
37.96202246,2.708361626,0.038216352,1.162718058
37.97783032,3.293962479,-0.170705557,1.194498897
37.99360791,3.874790192,-0.105334282,1.293342352
38.00950757,3.272798538,0.315591335,0.979770362
38.02531592,2.045647621,0.641067266,0.414245605
38.04118481,1.747866631,0.621753693,-0.432363868
38.05702344,2.106801987,0.125720263,-0.780301511
38.07280103,3.297815323,-0.912532926,-0.620391846
38.08863965,4.114317894,-2.21663475,-0.386252671
38.10444775,4.490411758,-3.450540066,-0.067436367
38.12037817,3.447563171,-3.977720261,-0.110426635
38.13624707,1.344167709,-4.056497574,-0.789683819
38.1520249,-0.363838196,-3.803227425,-1.421204805
38.1678938,-1.733799934,-3.512430668,-1.775014758
38.1837019,-2.319495201,-3.01744771,-1.700035453
38.19947949,-1.810080528,-2.658565044,-1.310873985
38.2152876,-1.297132492,-2.463482141,-1.01148963
38.2310957,-0.828821182,-2.344482422,-0.455445409
38.24693457,0.608326912,-2.385024071,0.132063657
38.26271216,1.483072281,-2.164518833,0.727761865
38.27864209,1.117491722,-1.662374139,0.750958443
38.29441968,0.242314339,-1.059938669,0.513131618
38.31028882,-0.86199379,-0.717087865,0.324612856
38.32615796,-1.549181938,-0.507467747,0.192854673
38.34193555,-2.159544468,-0.404371262,0.088160604
38.35789624,-2.72289753,-0.421847343,-0.02344811
38.37376538,-2.691111088,-0.442776561,0.060392499
38.38957373,-2.489395142,-0.444774032,0.134552658
38.40547339,-2.217316628,-0.538952112,0.09626168
38.42131177,-1.871670246,-0.55489707,0.021252155
38.43721143,-1.635826588,-0.514285445,-0.218696028
38.45298926,-1.710508823,-0.399901152,-0.42427513
38.46879712,-1.787227631,-0.302819371,-0.628446817
38.48469678,-1.564861298,-0.201670647,-0.74901408
38.50053564,-1.163218498,-0.195792913,-0.765008569
38.51637402,-0.906476021,-0.241572142,-0.794626474
38.53218237,-0.491024017,-0.196228504,-0.787252545
38.54805151,-0.264669418,-0.006415367,-0.692621887
38.56388989,-0.257597923,0.31662488,-0.605912089
38.57969824,0.055457115,0.550658464,-0.562595069
38.59553662,0.469802856,0.568095207,-0.614027262
38.61137524,1.527172089,0.166544437,-0.769764662
38.62721387,3.203008652,-0.109674215,-0.589580536
38.64305249,4.400269508,-0.168674111,-0.450897217
38.65901343,3.704895973,0.318616629,-0.371041775
38.67491309,2.449824333,0.8327384,-0.211430371
38.69078198,2.079575539,0.686517358,0.238978267
38.70662061,2.973518372,-0.033836484,0.482558608
38.72248975,3.906933784,-0.870774806,0.848525524
